activity,body_acc_x,body_acc_y,body_acc_z,body_gyro_x,body_gyro_y,body_gyro_z,total_acc_x,total_acc_y,total_acc_z
5,0.000180852,0.01076681,0.05556068,0.03019122,0.06601362,0.02285864,1.012817,-0.1232167,0.1029341
5,0.01013856,0.00657948,0.05512483,0.04371071,0.04269897,0.01031572,1.022833,-0.1268756,0.1056872
5,0.009275574,0.008928878,0.04840473,0.0356878,0.07485018,0.01324969,1.022028,-0.1240037,0.1021025
5,0.005065897,0.007488683,0.04977497,0.0404021,0.05731974,0.01775121,1.017877,-0.1249279,0.1065527
5,0.01081025,0.006140966,0.04301314,0.04709654,0.05234284,0.002553367,1.02368,-0.1257667,0.1028135
5,0.004045101,0.006944317,0.04472929,0.05018473,0.06917394,0.007724708,1.016974,-0.124462,0.1074931
5,0.004757375,0.003552423,0.04371898,0.05054452,0.0498667,0.004324535,1.017746,-0.1273606,0.1093857
5,0.006213647,0.002537128,0.03537854,0.04499207,0.05675081,0.01061698,1.019263,-0.1278912,0.1038862
5,0.003306744,0.004084532,0.03118777,0.04768623,0.05818872,0.01718869,1.016417,-0.1258682,0.1024732
5,0.007571941,0.005118448,0.02356719,0.04681215,0.04319882,0.0105107,1.020745,-0.1243682,0.0975659
5,0.005407117,0.005892268,0.02100047,0.04648827,0.05577766,0.01509803,1.018643,-0.1231382,0.09764665
5,0.006221276,0.007249871,0.016147,0.04730417,0.04765018,0.01157841,1.019521,-0.1213345,0.09537356
5,0.006895028,0.009790774,0.0119325,0.03802952,0.04950402,0.0132005,1.02026,-0.1183578,0.09367106
5,0.00461026,0.007661138,0.01503767,0.03093736,0.05151212,0.01635518,1.018041,-0.120062,0.09921876
5,0.007331333,0.00518936,0.01342049,0.02790837,0.03705788,0.01317292,1.020829,-0.1221186,0.09997368
5,0.005077667,0.006823079,0.01004153,0.02614282,0.0527994,0.01640941,1.018644,-0.12008,0.09889572
5,0.005762556,0.005606931,0.005198976,0.02528027,0.05284313,0.01151064,1.019398,-0.1209017,0.0962825
5,0.006692748,0.004729647,0.004417609,0.02342591,0.05009809,0.009523455,1.020399,-0.1213949,0.09765831
5,0.005443238,0.004183207,0.005115478,0.02470455,0.05729133,0.008297546,1.019222,-0.1215677,0.1004408
5,0.008240952,0.000706634,0.001132596,0.02689775,0.05279203,0.005482304,1.022093,-0.1246812,0.09846986
5,0.006506451,-0.000454437,0.002293523,0.02787343,0.05280419,0.005960526,1.020433,-0.1254896,0.1015699
5,0.006531523,-0.000241067,0.000963131,0.0316086,0.04361139,-0.000366814,1.020534,-0.1249345,0.1021059
5,0.007422441,-0.000543869,-0.002421895,0.03910354,0.04668125,0.005606801,1.021503,-0.1249063,0.1005147
5,0.005771769,-0.000949984,-0.002543873,0.0448533,0.05079353,0.01295289,1.019931,-0.1249926,0.1021144
5,0.006240187,-0.001421207,-0.005352179,0.04257956,0.03991168,0.009089979,1.02048,-0.1251552,0.100956
5,0.004622982,-0.001361999,-0.006410035,0.03940484,0.04022029,0.01051749,1.018945,-0.1247985,0.1014768
5,0.004832962,-0.00232884,-0.007964334,0.04165603,0.03499555,0.008128106,1.019238,-0.1254793,0.1014304
5,0.005498746,-0.00393101,-0.01074676,0.04051437,0.03389096,0.005713947,1.019989,-0.1268068,0.1000858
5,0.004341186,-0.004676219,-0.01239215,0.03848405,0.03897223,0.007487914,1.018917,-0.1272888,0.09980876
5,0.005098018,-0.00135205,-0.01606806,0.04045705,0.03509487,0.007528194,1.019762,-0.123713,0.09743248
5,0.004268742,0.002857771,-0.01952699,0.0397349,0.03188229,0.01188285,1.019021,-0.1192631,0.09520512
5,0.003045187,-0.000804551,-0.02220555,0.0405064,0.02679002,0.01483568,1.017887,-0.1226967,0.09369074
5,0.003204192,-0.005447914,-0.02264173,0.04339332,0.02586305,0.0138678,1.018136,-0.1271224,0.09435198
5,0.0045204,-0.004810002,-0.02207232,0.04602325,0.02576626,0.01452139,1.019543,-0.126278,0.09595278
5,0.005127211,-0.004869238,-0.02033109,0.04998989,0.02624088,0.0150046,1.020242,-0.1261419,0.0986602
5,0.003549791,-0.004080336,-0.01490971,0.04859361,0.03086369,0.01457854,1.018757,-0.1251686,0.1049836
5,0.004234233,-0.000679112,-0.01410745,0.04658272,0.02776856,0.01579341,1.019534,-0.121594,0.1066249
5,0.00446867,0.001696425,-0.01509571,0.0456745,0.02680273,0.01629297,1.019862,-0.1190558,0.1064143
5,0.003572702,0.002687273,-0.01274282,0.04078753,0.02901573,0.01396439,1.01906,-0.1179128,0.109485
5,0.005136278,0.003054424,-0.01528553,0.03801871,0.02779686,0.01248284,1.020717,-0.1174034,0.107602
5,0.005379786,0.003114898,-0.02040135,0.03202615,0.02835536,0.008985471,1.021055,-0.1172102,0.1030893
5,0.00440852,0.002052629,-0.02351049,0.02327556,0.02949975,0.004736059,1.020178,-0.1181487,0.1005282
5,0.002244039,0.001515292,-0.02482573,0.02196205,0.03039095,0.004896194,1.018108,-0.1185709,0.09970745
5,-0.001183598,0.00207083,-0.024356,0.02105109,0.02523661,0.005153667,1.014776,-0.1179084,0.1006193
5,-0.000679534,-0.000626623,-0.02528921,0.01889691,0.01934972,0.0113213,1.015374,-0.1205067,0.1000773
5,0.002281389,-0.004514772,-0.02351453,0.02212835,0.02338269,0.02079463,1.018429,-0.1243031,0.1021935
5,0.003653728,-0.005925923,-0.01848243,0.02535976,0.02551467,0.01748272,1.019895,-0.1256299,0.107519
5,0.002312639,-0.005062805,-0.01730019,0.02339566,0.01951382,0.01374343,1.018647,-0.1246896,0.108948
5,-4.04E-05,-0.002244477,-0.01922518,0.02117075,0.01576721,0.01814381,1.016387,-0.1218014,0.107225
5,0.000534225,-0.000786088,-0.02209267,0.01873564,0.01682286,0.01794942,1.017053,-0.1202801,0.1045164
5,0.002963263,-0.001218282,-0.02442541,0.01343449,0.01638477,0.01797547,1.019572,-0.1206562,0.102301
5,0.004399468,-0.001676407,-0.02855689,0.01204735,0.01485117,0.02099681,1.021097,-0.1210648,0.09824694
5,0.002702339,-0.002273432,-0.03300622,0.0125549,0.01521754,0.02094493,1.019488,-0.1216185,0.09383632
5,0.000345231,-0.004803613,-0.02600015,0.01003727,0.0163432,0.0183996,1.017218,-0.1241114,0.1008436
5,0.002916911,-0.008823154,-0.0178653,0.01151235,0.01907281,0.01098771,1.019876,-0.1280997,0.1089435
5,0.004978556,-0.008774635,-0.02302448,0.01590435,0.02131422,0.004335124,1.022022,-0.1280257,0.1037146
5,0.00344687,-0.007305396,-0.02613965,0.01810753,0.02026724,0.004312245,1.020574,-0.126537,0.1004966
5,0.004378151,-0.00822922,-0.02246608,0.01600329,0.02050372,0.006344854,1.021588,-0.1274474,0.1040357
5,0.00500617,-0.008141506,-0.02384026,0.0117786,0.02248609,0.00852602,1.022298,-0.1273523,0.1024968
5,0.001996795,-0.007250328,-0.02596191,0.01449999,0.02122213,0.008615965,1.019369,-0.1264597,0.1001817
5,-0.00047186,-0.005531581,-0.025649,0.01688044,0.01993555,0.006999244,1.01698,-0.1247455,0.1002736
5,-0.000755568,-0.004444861,-0.02645046,0.01424718,0.01940925,0.007209817,1.016774,-0.1236691,0.09922501
5,-0.00152817,-0.003666564,-0.02601143,0.01584726,0.01228776,0.00812294,1.016079,-0.1229069,0.09939194
5,0.001093752,-0.004687588,-0.02685954,0.01711106,0.006122797,0.01226815,1.018851,-0.123976,0.09792958
5,0.004550077,-0.007487894,-0.02509841,0.02417851,0.009710357,0.01614958,1.02238,-0.1268078,0.09935086
5,0.002879173,-0.008429991,-0.02597534,0.03022889,0.01032192,0.01589471,1.020781,-0.1277862,0.09811381
5,0.002247428,-0.007257599,-0.02619276,0.03202858,0.01341607,0.01267118,1.020218,-0.1266547,0.09751712
5,0.003304683,-0.004190853,-0.02584064,0.03126624,0.01685763,0.008774044,1.021344,-0.1236336,0.0974719
5,0.002415886,-0.005425981,-0.02632141,0.02825407,0.01593049,0.005685091,1.020522,-0.1249187,0.09657678
5,0.001618559,-0.004753452,-0.02472722,0.01964329,0.01353088,0.006092832,1.01979,-0.1243005,0.09774064
5,0.000981352,-0.00019275,-0.02471338,0.01117694,0.0117392,0.008383453,1.019216,-0.1197982,0.09730921
5,8.89E-06,0.000445235,-0.02340456,0.01112387,0.0115503,0.01113997,1.018307,-0.1192223,0.09815882
5,-0.000362765,-0.000441014,-0.01992557,0.01062127,0.01049437,0.01240639,1.017996,-0.120174,0.1011657
5,-0.000487023,-0.001514938,-0.01898631,0.009929081,0.007872243,0.0119422,1.017932,-0.1213162,0.1016211
5,-0.000355958,-0.002419472,-0.01853955,0.01242206,0.008399571,0.01425919,1.018121,-0.1222915,0.1015734
5,-0.000229161,-0.00654884,-0.01844216,0.01275073,0.00848392,0.01532931,1.018305,-0.1264941,0.1011669
5,-0.00013115,-0.01261049,-0.01773727,0.01346378,0.007177491,0.01358108,1.018458,-0.132631,0.1013595
5,-0.000441148,-0.008526039,-0.01743881,0.01419488,0.005249931,0.01666432,1.018201,-0.1286242,0.1011384
5,-0.001565163,-0.001836966,-0.01881304,0.01341148,0.003183719,0.0195562,1.017129,-0.122015,0.09923839
5,-0.000929403,-0.001594163,-0.01693978,0.0101479,0.005777743,0.01841148,1.017814,-0.1218544,0.1005806
5,8.72E-06,-0.000866285,-0.01448156,0.004553559,0.006040837,0.01835649,1.0188,-0.1212108,0.1025034
5,-0.001236221,-0.000172597,-0.01627775,0.001828984,0.006527122,0.01396835,1.017601,-0.120603,0.1001684
5,-0.000911247,-0.000430285,-0.01730822,0.001266265,0.009679867,0.008665903,1.01797,-0.1209479,0.09859667
5,-0.000435034,-0.000612202,-0.01458218,0.001610473,0.004460567,0.01096347,1.018489,-0.1212181,0.1007798
5,-0.001176794,-0.002986203,-0.01445833,0.001983985,0.001063257,0.01193223,1.017787,-0.1236811,0.1003598
5,0.000164614,-0.004768586,-0.01507422,0.00255801,0.004586615,0.009651963,1.019167,-0.1255531,0.09920002
5,0.000750828,-0.003324209,-0.01201679,0.004083133,0.006931871,0.009057493,1.019789,-0.1241987,0.1017142
5,0.000388663,-0.001192537,-0.01171715,0.002218837,0.007198959,0.008856516,1.019462,-0.1221575,0.101472
5,0.001327517,-0.002341803,-0.01142364,-0.002512723,0.003840993,0.01126824,1.020433,-0.1233974,0.1012259
5,0.002052525,-0.006116693,-0.009459552,-0.003862224,0.003656627,0.01425713,1.021189,-0.127263,0.1026532
5,0.002737531,-0.009001041,-0.009971836,0.00587006,0.007268424,0.01478594,1.021903,-0.1302381,0.1016078
5,0.002742893,-0.009958193,-0.01041719,0.0175175,0.008982496,0.0141587,1.021936,-0.1312862,0.1006335
5,0.001330037,-0.008580468,-0.01438429,0.01472689,0.01067894,0.008383668,1.02055,-0.1299998,0.09614245
5,-0.000366992,-0.006259511,-0.01968247,0.01049375,0.009521739,0.001907059,1.018878,-0.1277708,0.09032558
5,-0.000721657,-0.002305442,-0.01958932,0.01147891,0.007313028,0.004132293,1.018548,-0.1239092,0.0899055
5,-0.001903602,0.001958977,-0.01587042,0.008531017,0.006596727,0.007871423,1.017389,-0.1197379,0.0931167
5,-0.004294253,0.000322246,-0.01274419,0.009196276,0.003339415,0.007842663,1.015021,-0.121468,0.09574084
5,-2.51E-05,-0.004128232,-0.01373885,0.01103959,0.000821577,0.008190243,1.01931,-0.1260118,0.09424991
5,0.005250842,-0.006242957,-0.013018,0.009542012,0.002325922,0.007085829,1.024606,-0.1282198,0.09448054
5,0.002489833,-0.004297268,-0.009259257,0.01117277,0.004577473,0.00553753,1.021863,-0.1263671,0.09775536
5,0.000810633,0.000415238,-0.00753524,0.01041176,0.00461956,0.005446472,1.020201,-0.1217475,0.09900205
5,0.001166027,0.000375407,-0.00754386,0.008657758,0.003402756,0.004285669,1.020573,-0.1218799,0.09852306
5,-0.000693031,-0.001618403,-0.01017443,0.008613045,0.002954428,0.003559909,1.018729,-0.1239658,0.09542946
5,-7.72E-05,-0.001817927,-0.01093676,0.004610851,0.002540035,0.002001571,1.01936,-0.1242567,0.0942117
5,0.000503687,-0.003620557,-0.0069656,0.000421201,0.002452076,-1.68E-05,1.019954,-0.1261499,0.09773522
5,-0.000494603,-0.005030822,-0.002073686,-0.00127174,0.002373748,0.002037589,1.018969,-0.1276499,0.1021875
5,0.000156246,-0.006879768,-0.000372678,0.002563105,0.001153177,0.003736043,1.019633,-0.1295878,0.1034573
5,6.46E-05,-0.007551414,-0.003797477,0.01010207,-0.000685483,0.003147507,1.019553,-0.1303476,0.09961019
5,-0.000320057,-0.007095538,-0.005405762,0.01322245,-0.005259755,0.005214139,1.019179,-0.1299795,0.09758879
5,0.000185352,-0.009193416,-0.003975261,0.01421953,-0.009021585,0.0078021,1.019695,-0.1321647,0.09861568
5,-0.000374904,-0.005811485,-0.004314681,0.01517764,-0.006504263,0.006516378,1.019145,-0.12887,0.09788232
5,-0.001012818,-0.001100333,-0.004936361,0.01800735,-0.00410332,0.004947088,1.018516,-0.124246,0.09687653
5,-0.00161137,-0.003513449,-0.004429086,0.02088455,-0.00399123,0.006478854,1.017926,-0.1267462,0.09700962
5,-0.00176494,-0.003724755,-0.003492312,0.01797445,-0.004002698,0.006763766,1.01778,-0.1270445,0.09758221
5,-0.000635727,-0.002230556,-0.003647089,0.0143596,-0.005715448,0.006273074,1.018917,-0.1256371,0.09707332
5,0.001047456,-0.003286977,-0.002951549,0.01362942,-0.00393037,0.00576341,1.020606,-0.12678,0.09742485
5,0.003018694,-0.002275556,-0.000701466,0.01391303,-0.00122575,-2.36E-05,1.022583,-0.1258547,0.0993411
5,0.001412165,0.000171713,0.000338835,0.01266673,-0.002877947,-0.006041726,1.020981,-0.1234932,0.1000578
5,-0.00150914,0.00175554,-0.000841731,0.01047506,-0.002945334,-0.006890512,1.018065,-0.1219945,0.09856404
5,6.02E-05,-7.59E-05,-0.005925807,0.01109821,-0.003434303,-0.004902893,1.019638,-0.1239103,0.09317716
5,0.000435423,-0.004052565,-0.01006841,0.01341119,-0.005050563,0.001353933,1.020017,-0.1279703,0.08874205
5,-0.000818534,-0.00429535,-0.008023282,0.01845437,-0.00498768,0.008032537,1.018766,-0.1282954,0.09050464
5,0.000227655,-0.002928965,-0.003412107,0.02519675,-0.005165791,0.007355378,1.019815,-0.1270103,0.09484291
5,-0.000299894,-0.002023084,0.000358962,0.03232826,-0.001298482,0.002668618,1.01929,-0.1261848,0.09835045
5,-0.001147484,0.000171444,0.002647864,0.03985177,0.001909445,-0.002170124,1.018445,-0.1240696,0.1003852
5,-0.000222265,0.001574181,0.002381057,0.03744932,-7.98E-05,-0.005642633,1.019372,-0.1227451,0.09987355
5,0.003531266,0.004455942,-0.005914581,0.02618877,-0.000238341,0.002158897,1.023127,-0.1200157,0.09111667
5,0.002285063,0.003045876,-0.004138911,0.02165149,-0.000427598,-0.000272475,1.021882,-0.1214994,0.0926756
5,-0.000419754,0.001776179,-0.000542885,0.01455062,0.000761135,0.002630986,1.019178,-0.1228407,0.09606378
5,-0.003737739,0.000968947,0.003489608,0.0148146,-0.003025767,0.003376336,1.015861,-0.1237173,0.09989713
5,-0.006706148,0.00093653,0.001409457,0.01669362,-0.00598819,5.68E-05,1.012893,-0.1238168,0.0976265
5,-0.003148451,0.003514173,-0.007744609,0.01463423,-0.003049946,0.001268394,1.016451,-0.1213038,0.08829054
5,0.000732538,0.003621881,-0.01362096,0.01526959,-0.001156794,-0.001208593,1.020331,-0.1212583,0.08224058
5,0.000668135,-0.00047138,-0.01459605,0.02135,-0.002648259,-0.002289726,1.020266,-0.125411,0.08109954
5,0.002162164,-0.004461824,-0.01424104,0.02962472,-0.00380607,0.00045134,1.021759,-0.1294583,0.08129546
5,-0.000945939,-0.004805539,-0.01345656,0.0392016,-0.003979572,-0.000389363,1.018649,-0.1298562,0.08192691
5,-0.006476143,-0.002680022,-0.007689982,0.04937295,-0.007079904,-0.000901401,1.013117,-0.1277827,0.08754584
5,-0.003423333,-0.000530734,-0.001351084,0.05524938,-0.01255675,-0.001957633,1.016167,-0.1256833,0.09374196
5,-0.000609927,0.004117354,-0.003900881,0.05236689,-0.01619175,0.000706156,1.018977,-0.121083,0.09105401
5,-0.002929186,0.007375066,-0.006647453,0.04583526,-0.01782415,0.004903018,1.016653,-0.1178711,0.08817375
5,-0.001795917,0.007110811,-0.006077766,0.04138619,-0.01974448,0.002407896,1.017782,-0.1181788,0.08861402
5,0.000955678,0.007835005,-0.00255935,0.03618486,-0.02411394,0.002691734,1.020528,-0.1174953,0.09200702
5,0.002311049,0.007948574,0.003613836,0.02788845,-0.02875897,0.007056559,1.021877,-0.1174196,0.09805868
5,0.002537544,0.008879075,0.001100876,0.01641926,-0.03016049,0.01049125,1.022096,-0.1165236,0.09542812
5,0.001180425,0.008797726,-0.001726151,0.007413898,-0.02911921,0.01146491,1.020731,-0.116636,0.09248751
5,0.001217372,0.004488573,0.001531361,0.004286593,-0.02471796,0.007355353,1.020761,-0.1209724,0.0956355
5,0.00086937,-0.000207905,0.000343686,0.005198183,-0.01617533,0.000958383,1.020405,-0.1256922,0.09434238
5,0.000685883,-0.003728186,0.000315678,0.01204652,-0.008561859,-0.005726921,1.020213,-0.129232,0.09421302
5,0.002155518,-0.000624203,0.003154938,0.01488067,-0.004781796,-0.007843674,1.021675,-0.126144,0.09695504
5,0.000477616,0.006044044,0.00358997,0.01134024,-0.009407094,-0.006568326,1.019989,-0.1194885,0.09729701
5,-0.001506008,0.00819146,0.003908347,0.01076365,-0.01993241,-0.007551694,1.017997,-0.1173506,0.09752661
5,-0.002104581,0.007840818,0.003834949,0.009604963,-0.0171096,-0.006523715,1.017391,-0.1177075,0.09736884
5,-0.001493761,0.004984459,0.005438504,0.009376151,-0.009112074,-0.007353411,1.017994,-0.1205666,0.09889255
5,0.002181094,0.003924646,0.00715756,0.0084531,-0.01117432,-0.009759107,1.021661,-0.1216256,0.1005364
5,0.002875756,0.004711914,0.004773999,0.006821686,-0.009510978,-0.004647387,1.022348,-0.120834,0.09808253
5,0.000871317,0.004027245,0.004065049,0.009167407,-0.01059464,0.002526866,1.020336,-0.1215108,0.0973082
5,-0.000392094,0.004990139,0.008578893,0.008278431,-0.01835304,0.008457181,1.019066,-0.1205366,0.1017617
5,-0.000569023,0.002853455,0.01266003,0.009356156,-0.01965788,0.0119378,1.018882,-0.1226586,0.1057878
5,0.000568742,0.000418187,0.01145131,0.01423601,-0.01968344,0.009866396,1.020013,-0.1250758,0.1045294
5,-0.001176213,0.002052878,0.008438243,0.01739073,-0.01993941,0.009630664,1.018262,-0.12342,0.1014726
5,-0.001957435,0.005539667,0.003287705,0.01837319,-0.02236767,0.01106699,1.017474,-0.1199092,0.09628423
5,-0.000471465,0.01235026,-0.005848621,0.01224271,-0.02361459,0.009372117,1.018954,-0.1130717,0.08711603
5,0.000208097,0.01270874,-0.004732767,0.008090739,-0.01565791,0.006184999,1.019628,-0.1126833,0.08820557
5,0.003379712,0.00658546,0.003878565,0.009138692,-0.01027518,0.001904874,1.022794,-0.1187733,0.09679566
5,0.004829054,0.001688833,0.003911876,0.01104749,-0.01086791,0.000189679,1.024238,-0.1236332,0.09681245
5,0.003379863,-0.003378065,0.006074902,0.0157888,-0.01089597,-0.000413756,1.022783,-0.1286601,0.09896355
5,0.001088405,0.003560253,0.0116915,0.01527003,-0.009381334,-0.004500497,1.020487,-0.1216789,0.1045728
5,-0.001249106,0.01663353,0.0105467,0.01070733,-0.01087366,-0.005280215,1.018146,-0.1085598,0.1034254
5,0.000386951,0.01632624,0.00785277,0.005974643,-0.0173863,-0.000160948,1.019779,-0.1088185,0.1007337
5,0.000532949,0.01316344,0.005076829,0.003354033,-0.02042611,0.00579408,1.019922,-0.1119293,0.097965
5,-0.000678564,0.01170208,0.006815634,0.009455401,-0.01788994,0.009647028,1.018709,-0.1133349,0.09971603
5,0.000594089,0.006578911,0.01149356,0.01679166,-0.01339324,0.009009163,1.01998,-0.1183985,0.1044111
5,-8.36E-05,0.004478779,0.01039708,0.0212339,-0.01348585,0.008348743,1.019301,-0.1204352,0.1033368
5,-0.000141691,0.005702149,0.0107033,0.02384828,-0.01441123,0.01021238,1.019243,-0.1191445,0.1036703
5,0.000784418,0.00750645,0.01004789,0.02533646,-0.007153807,0.01073727,1.020169,-0.1172693,0.1030473
5,0.001506924,0.009006274,0.006209734,0.02804052,-0.002987779,0.01229083,1.020892,-0.1156951,0.09924684
5,0.003385515,0.01058056,0.007604412,0.02625157,-0.004341001,0.01544924,1.022771,-0.1140429,0.1006844
5,0.002165718,0.01285641,0.007845356,0.0186163,-0.005510326,0.02050345,1.021553,-0.1116856,0.1009733
5,0.00042221,0.01167926,0.004790369,0.005086769,-0.008609702,0.02513287,1.019811,-0.1127778,0.09797125
5,0.00085431,0.008624938,0.002445396,-0.008618098,-0.01246909,0.02091334,1.020246,-0.1157433,0.09568395
5,-0.000103821,0.006604234,0.001235987,-0.01366737,-0.013522,0.01654362,1.019291,-0.1176716,0.09453667
5,-0.000141394,0.004295088,0.005392138,-0.02085735,-0.009679536,0.01855607,1.019258,-0.1198846,0.09875904
5,0.001332858,0.002025194,0.008540296,-0.02934219,-0.01003361,0.01817258,1.020736,-0.1220551,0.1019772
5,0.001540863,0.00099961,0.001849718,-0.03003676,-0.01233109,0.01804618,1.02095,-0.1229782,0.09536033
5,0.001077121,0.000903964,-0.004121458,-0.02948027,-0.01057604,0.01939349,1.020491,-0.1229688,0.0894662
5,-0.000735534,-0.003573985,0.001457857,-0.02617248,-0.01063039,0.01806965,1.018685,-0.1273395,0.09512551
5,-0.003766729,-0.008672473,0.005746104,-0.02640589,-0.008098137,0.01462772,1.01566,-0.1323291,0.09949626
5,-0.004646144,-0.00547985,-0.000299667,-0.03474078,-0.008694754,0.00504473,1.014788,-0.1290268,0.0935352
5,-0.002941333,-0.002987481,-0.004886324,-0.03797305,-0.01165249,-0.004424329,1.016499,-0.1264244,0.08903516
5,-0.001772352,-0.01018541,0.001053255,-0.03751574,-0.01288632,-0.000872742,1.017682,-0.1334039,0.0951518
5,-0.001311448,-0.01125254,0.001227295,-0.033097,-0.01691822,-0.00548197,1.018149,-0.1343639,0.09541539
5,0.00038768,-0.0121963,-0.006004362,-0.03036013,-0.01618518,-0.00467823,1.019854,-0.1352028,0.08827355
5,0.000408108,-0.01114337,-0.008042814,-0.02500934,-0.0120633,-0.000221035,1.01988,-0.134048,0.08632477
5,-0.000355485,-0.007825615,-0.006045211,-0.01926447,-0.006651224,0.001587686,1.019121,-0.130632,0.08841135
5,0.000998156,-0.001033787,-0.005614841,-0.01017652,-0.01244035,0.009021307,1.020479,-0.1237461,0.08892948
5,0.001109318,0.003850539,-0.00293945,-0.001797719,-0.01869854,0.02095275,1.020595,-0.1187719,0.09169096
5,-0.00314936,-0.000351623,-0.001349962,-0.005482441,-0.01729011,0.02821217,1.01634,-0.1228884,0.09336454
5,-0.008882086,-0.004737375,0.001680984,-0.007691706,-0.02039631,0.02860941,1.010611,-0.1271927,0.09647738
5,-0.01048281,-0.003945412,0.003860562,-0.003542818,-0.02332382,0.02445626,1.009013,-0.1263233,0.09873661
5,-0.004481786,-0.004975113,0.000700493,0.003283969,-0.01974539,0.01841538,1.015016,-0.1272799,0.09565399
5,0.004527594,-0.006048249,-0.001355933,0.01036105,-0.01199548,0.01196289,1.024026,-0.1282842,0.09367285
5,0.008166536,-0.004648472,-0.003865603,0.005508295,-0.006423146,0.0131306,1.027664,-0.1268202,0.09123625
5,0.002929029,-0.001638788,-0.003100434,-0.004770016,-0.01238612,0.01762248,1.022425,-0.1237509,0.09207211
5,-0.004486608,0.003605332,0.002034798,-0.01085442,-0.01877187,0.01398782,1.015007,-0.1184518,0.09727551
5,-0.004716759,0.005257024,0.00191186,-0.02038051,-0.01485568,0.01319211,1.014774,-0.1167494,0.09721817
5,-0.001637127,0.002393704,-0.000252715,-0.0293615,-0.01444504,0.01480165,1.017851,-0.1195661,0.09511668
5,-9.70E-05,-0.000698272,-0.002242471,-0.02890334,-0.01711497,0.01071687,1.019387,-0.122615,0.09318756
5,0.001614149,-0.005531715,-0.004317535,-0.02720769,-0.01448319,0.007661086,1.021093,-0.127409,0.09117061
5,0.002618655,-0.0111575,-0.007194851,-0.02777876,-0.01300332,0.003065528,1.022092,-0.1329988,0.08834874
5,0.004764628,-0.01533268,-0.01268424,-0.02634784,-0.01070677,0.002589248,1.024232,-0.1371418,0.08291186
5,0.005850534,-0.01527474,-0.01146728,-0.02653885,-0.009098077,0.01033914,1.025311,-0.1370559,0.08417797
5,0.002578509,-0.01088979,-0.00675649,-0.02925588,-0.01102559,0.01147186,1.022033,-0.1326478,0.08893409
5,0.000676594,-0.00956446,-0.005141939,-0.03191293,-0.009340873,0.002817474,1.020125,-0.1313045,0.09058986
5,0.002137831,-0.009665561,-0.002170144,-0.03111694,-0.008213288,-0.007158472,1.02158,-0.1313929,0.09359861
5,0.003519407,-0.008732625,-0.005914338,-0.02710511,-0.008560041,-0.005931069,1.022957,-0.1304528,0.08988711
5,0.002715181,-0.009452605,-0.01268042,-0.02328726,-0.007383578,-2.55E-05,1.022148,-0.1311713,0.08314939
5,0.002370056,-0.008210103,-0.01040767,-0.01890386,-0.007872981,-0.002707846,1.021799,-0.129933,0.08544598
5,0.00329938,-0.007717272,-0.006662952,-0.01902006,-0.007756098,-0.002539594,1.022725,-0.12945,0.08920975
5,0.002356592,-0.008055795,-0.003185698,-0.02446015,-0.009637307,-0.003190793,1.02178,-0.1298041,0.09270112
5,0.001481288,-0.007410384,-0.000508949,-0.02749654,-0.01420584,-0.007055314,1.020903,-0.1291798,0.09538713
5,-0.000340358,-0.009625222,-0.002894676,-0.02466923,-0.01359462,-0.0053171,1.019081,-0.1314214,0.09300598
5,-0.002201276,-0.008887594,-0.006234218,-0.01640741,-0.008229862,-0.006089144,1.017221,-0.1307161,0.08966654
5,0.000123891,-0.007882811,-0.01080015,-0.009304374,-0.004519803,-0.002328616,1.019547,-0.1297491,0.0850963
5,0.002344658,-0.009518091,-0.01102115,-0.006801064,-0.005202828,0.003785776,1.02177,-0.1314277,0.08486652
5,0.002705566,-0.008084549,-0.005668005,-0.006188071,-0.006868842,-0.001736605,1.022134,-0.1300428,0.09020624
5,0.001281408,-0.007657796,-0.003917785,-0.006304192,-0.008104836,-0.005535586,1.020713,-0.12967,0.09193836
5,-0.000948952,-0.004415951,-0.001011636,-0.01217011,-0.01058811,-0.003725289,1.018487,-0.1264872,0.09482185
5,0.000890139,0.000449988,0.00021672,-0.02721833,-0.00976624,-0.004714061,1.020331,-0.1216853,0.09602326
5,0.004952111,-0.001523683,-0.002559828,-0.03497128,-0.006867264,-0.006092199,1.024399,-0.1237275,0.09321579
5,0.007314656,-0.003409245,0.000419065,-0.03086509,-0.008822332,-0.004015603,1.026768,-0.1256856,0.09616013
5,0.004242222,-0.004295764,0.000559708,-0.03052088,-0.01431289,0.002861788,1.023704,-0.1266484,0.09626289
5,-0.002776261,-0.007152848,-0.001983923,-0.02943968,-0.02243559,0.01124546,1.016694,-0.1295852,0.0936784
5,-0.004625377,-0.008046479,0.00076107,-0.0211729,-0.02933957,0.0137158,1.014855,-0.1305618,0.09637986
5,-0.001945381,-0.008149167,-0.001848909,-0.01366752,-0.03298886,0.01044578,1.017545,-0.1307506,0.09372395
5,0.002561209,-0.009851324,-0.007844772,-0.01141247,-0.03750257,0.01081324,1.022063,-0.132542,0.08767998
5,0.007382496,-0.0105419,-0.009795951,-0.01071211,-0.02818941,0.01043909,1.026897,-0.1333249,0.08567856
5,0.005729969,-0.007638021,-0.008854368,-0.007396116,-0.01122052,0.006563466,1.025257,-0.1305165,0.08656764
5,0.002901375,-0.004282001,-0.004676575,-0.008562034,-0.01459084,0.007487823,1.022442,-0.1272591,0.09069055
5,0.002895701,-0.004194685,-0.002419232,-0.0168069,-0.01725376,0.004233493,1.022451,-0.1272733,0.09289061
5,0.000533167,-0.005142322,-0.001374871,-0.02417346,-0.009329368,-0.002323247,1.020104,-0.1283251,0.0938754
5,0.000551831,-0.005051534,-0.001094204,-0.02798213,-0.01277453,-0.002383047,1.02014,-0.1283409,0.09409445
5,0.001286363,-0.007900585,-0.007384436,-0.02819325,-0.01366365,-0.003674499,1.020892,-0.1312988,0.08774074
5,-0.000925562,-0.01200325,-0.01219319,-0.02670861,-0.009464953,-0.004933494,1.018699,-0.1355125,0.08286672
5,0.00066076,-0.01081536,-0.009649446,-0.02265879,-0.009236177,-0.003350959,1.020304,-0.1344378,0.08534326
5,0.001852535,-0.009352108,-0.007768295,-0.01685054,-0.005055375,-0.002691199,1.021516,-0.1330899,0.08715508
5,-0.00026759,-0.01051385,-0.01030535,-0.01753979,-0.007446832,-0.000283152,1.019417,-0.1343694,0.08454642
5,-0.000394315,-0.009039938,-0.0126113,-0.01921383,-0.01227895,0.000403665,1.019312,-0.1330156,0.08216647
5,-0.000279494,-0.006839299,-0.01272897,-0.0170941,-0.008943227,-0.001556269,1.019448,-0.1309374,0.08197219
5,-0.000316374,-0.006250388,-0.01320838,-0.01879399,-0.01019227,-0.001239235,1.019434,-0.1304731,0.08141334
5,0.000143825,-0.005955263,-0.01260342,-0.02059945,-0.01218098,-0.00303179,1.019916,-0.1303047,0.08193577
5,0.001245999,-0.006397631,-0.01144203,-0.02090983,-0.01005391,-0.005566286,1.021041,-0.1308757,0.08301135
5,0.003116783,-0.006601456,-0.0120302,-0.02211369,-0.009717281,-0.003701625,1.022935,-0.1312099,0.08233391
5,8.75E-05,-0.003856929,-0.01333336,-0.01942932,-0.008612378,-0.00157401,1.019952,-0.1287306,0.0808414
5,-0.000271918,-0.002837935,-0.01494756,-0.01909099,-0.008146719,0.000200708,1.019616,-0.1278461,0.07912684
5,0.001022103,-0.003086418,-0.01567863,-0.01481631,-0.00537662,-0.000970094,1.020933,-0.12823,0.07829138
5,0.003126034,-0.004574481,-0.009798396,-0.01397905,-0.003738178,-0.00067309,1.023061,-0.1298541,0.08406305
5,0.002283709,-0.00733629,-0.004299102,-0.01798378,-0.00321001,-0.000692818,1.022242,-0.1327524,0.08944957
5,0.000885138,-0.00843764,-0.004327871,-0.02128201,-0.004133074,-0.002041379,1.020867,-0.1339906,0.08930405
5,0.001932655,-0.005469174,-0.003051223,-0.0221773,-0.005087663,-0.000264686,1.021939,-0.1311592,0.09046032
5,0.002270077,-0.004142664,-0.004402753,-0.02168455,-0.003321364,-0.000216635,1.0223,-0.1299701,0.08898517
5,0.00224728,-0.005924252,-0.005266994,-0.02305333,-0.0022787,-0.001553926,1.022302,-0.1318892,0.08799444
5,0.002175194,-0.007195491,-0.004967437,-0.02374575,-0.003340397,-0.000895239,1.022254,-0.1332979,0.08816496
5,0.00174963,-0.008326246,-0.008718724,-0.01934459,-0.003775458,-0.001405698,1.021854,-0.1345662,0.08428234
5,0.001420277,-0.008167899,-0.01068917,-0.01434636,-0.003317613,-0.001195786,1.02155,-0.1345454,0.08217843
5,0.000297405,-0.006225295,-0.01403569,-0.01371008,-0.003565549,-0.000578969,1.020452,-0.1327403,0.07869633
5,0.000664744,-0.003859694,-0.01036725,-0.01472702,-0.005201733,-0.002825694,1.020845,-0.1305122,0.08222699
5,0.001911122,-0.003188715,-0.000379592,-0.01421722,-0.005150277,-0.003764462,1.022117,-0.1299787,0.09207467
5,0.00177805,-0.004081277,-0.001602285,-0.01449733,-0.001729117,-0.001579606,1.02201,-0.1310084,0.09071004
5,0.001086774,-0.003386521,-0.002729778,-0.01569374,0.000309326,-0.000734838,1.021345,-0.1304504,0.08943905
5,-0.000716166,-0.003710898,-0.002116936,-0.01509863,-0.000435472,-0.004878707,1.019568,-0.1309109,0.08990725
5,-0.001347448,-0.006195435,-0.007119986,-0.01394481,-0.001767048,-0.008576417,1.018964,-0.1335309,0.08475873
5,-0.000384491,-0.007462971,-0.009632604,-0.01350426,-0.004178556,-0.002905701,1.019953,-0.134933,0.08210002
5,-0.000134674,-0.005766133,-0.00875597,-0.01406092,-0.004274501,0.002852321,1.020229,-0.1333701,0.08282999
5,0.000665801,-0.00307357,-0.008067118,-0.01609727,-0.003949423,0.000659351,1.021055,-0.1308107,0.0833716
5,0.000655952,-0.003851369,-0.01012461,-0.01907047,-0.01058227,0.001587809,1.021071,-0.1317208,0.08116628
5,0.000220873,-0.003758605,-0.00958633,-0.02287743,-0.01614002,0.004387022,1.020661,-0.1317594,0.08155611
5,0.001470475,-0.001468465,-0.008028755,-0.02490169,-0.01383519,0.001890948,1.021936,-0.1295996,0.08296459
5,0.001643769,-0.002462883,-0.009118071,-0.01887779,-0.01039578,0.00132264,1.022134,-0.1307231,0.08172553
5,-0.00010566,-0.002536822,-0.004791155,-0.009240632,-0.008157137,0.001530382,1.020409,-0.1309249,0.08590207
5,-0.001682545,-0.001536574,-0.001709156,-0.006409626,-0.00628399,-0.002582179,1.018856,-0.130051,0.0888332
5,-0.001165447,-0.003697572,-0.003645468,-0.003054371,-0.004692428,-0.00466437,1.019397,-0.1323367,0.08674576
5,0.000241297,-0.008843626,-0.005548018,0.001201571,-0.002031867,-0.004718089,1.020827,-0.1376059,0.08469208
5,0.000216162,-0.01466167,-0.007449106,-0.000137759,0.002810945,-0.006202821,1.020824,-0.1435455,0.08264005
5,-0.000101628,-0.01250289,-0.00578841,0.003428959,0.007471593,-0.008205194,1.020529,-0.1415072,0.08415007
5,-0.001545708,-0.006846302,-0.004541142,0.001425367,0.007778423,-0.01125805,1.019106,-0.1359702,0.085247
5,-0.003518027,-0.006415235,-0.006060352,-0.008685232,0.005385726,-0.01130158,1.017155,-0.1356582,0.0835779
5,-0.003203586,-0.002983671,-0.005563816,-0.007466372,0.003951252,-0.01043999,1.01749,-0.1323452,0.08392508
5,-0.002375635,0.000784942,-0.001605122,-0.009431126,0.004750221,-0.0120877,1.018337,-0.1286947,0.08773506
5,-0.001825478,-0.00011007,0.002886305,-0.01684163,0.005176377,-0.00978944,1.018905,-0.129707,0.09207862
5,-0.001753681,1.96E-05,0.001925585,-0.01770179,0.002716288,-0.008615691,1.018994,-0.1296935,0.09097123
5,-0.002503634,-0.001568928,-0.000679173,-0.01902371,0.000118293,-0.00883228,1.01826,-0.1313971,0.08822138
5,-0.002611855,-0.003956685,-0.001627006,-0.01587189,-0.001981912,-0.001895873,1.018166,-0.1338985,0.08713036
5,-0.002714869,-0.005599697,-0.003674206,-0.01281615,-0.003256389,0.001873121,1.018076,-0.1356536,0.08494207
5,-0.001748359,-0.007100791,-0.005533498,-0.01148091,-0.002614697,-0.001333422,1.019054,-0.1372654,0.08294387
5,6.59E-05,-0.005044737,-0.00892129,-0.004276661,-0.002094315,-0.002343538,1.020879,-0.1353187,0.07941934
5,-4.95E-05,-0.004080598,-0.01131816,-0.004250235,-0.002412418,-0.001664854,1.020772,-0.1344627,0.07688773
5,-0.000898155,-0.002015576,-0.0079675,-0.007175448,-0.003496587,-0.001345921,1.019931,-0.1325045,0.08010541
5,-0.001478435,0.001713242,-0.003316441,-0.005461178,-0.005415162,-0.001697437,1.019357,-0.1288813,0.08462501
5,-0.000698406,-0.000135893,-0.000625457,-0.007880848,-0.008068159,-0.003775801,1.020142,-0.1308347,0.08718603
5,0.000440915,-0.00035259,0.000315216,-0.008620544,-0.009002269,-0.005683045,1.021285,-0.1311539,0.08799834
5,-0.001206032,0.001116772,-0.000474312,-0.006980584,-0.004780998,-0.004501593,1.01964,-0.1297853,0.08708227
5,-0.002606733,0.000108493,-0.001904192,-0.007683533,-0.000539731,-0.002337768,1.018241,-0.1308924,0.08552785
5,-0.001985628,0.001756904,-0.002079963,-0.007058944,-0.002132619,-0.00222691,1.018862,-0.1293406,0.08522969
5,-0.001229639,0.003161085,0.001764932,-0.008940122,-0.003882146,-0.002969221,1.019617,-0.1280308,0.08895445
5,-0.001129047,0.002886354,0.006107054,-0.01343258,-0.002370161,-0.005609582,1.019715,-0.1283974,0.09317888
5,-0.001333723,0.003001412,0.004255723,-0.01660352,-0.002988493,-0.00860554,1.019507,-0.1283714,0.09121262
5,0.000458441,0.003565424,0.001266921,-0.01942375,-0.003030841,-0.009408765,1.021295,-0.1278936,0.08811196
5,0.002102873,0.003913235,0.000585346,-0.02011425,0.00186859,-0.01120791,1.022934,-0.1276289,0.08732186
5,0.001358386,0.00173364,-0.002892971,-0.01954049,0.0047104,-0.01322325,1.022183,-0.1298882,0.08373844
5,0.000819629,0.000879065,-0.003828904,-0.01705672,0.003312574,-0.01312072,1.021637,-0.1308192,0.0827008
5,-0.000211641,0.003319797,-0.001941031,-0.01391085,0.002958553,-0.01211442,1.020598,-0.1284513,0.08449026
5,-0.001914734,0.005359476,-0.003551131,-0.01531618,0.00337228,-0.009982768,1.018887,-0.126481,0.08278491
5,-0.001631468,0.004399398,-0.002159595,-0.01781555,0.002577072,-0.00753362,1.019161,-0.1275068,0.08408426
5,-0.000867107,-1.83E-05,-0.000394089,-0.02015042,0.001401018,-0.00840847,1.019916,-0.1319863,0.08576054
5,-0.001171848,-0.002481271,-0.002793759,-0.01695977,0.000447238,-0.01115822,1.019602,-0.1345073,0.08327454
5,0.000525161,-0.000604037,-0.00711877,-0.005801088,0.005577377,-0.01738067,1.021278,-0.1327355,0.07878516
5,-0.001863282,-0.000496571,-0.004841466,-0.01043543,0.005155942,-0.02114078,1.018878,-0.1326756,0.08098401
5,-0.001510231,0.000462516,7.03E-05,-0.01325185,0.000948984,-0.01863582,1.019219,-0.131761,0.08581952
5,0.001268348,0.000314742,-0.0011547,-0.01517549,-0.000594948,-0.01646047,1.021986,-0.1319502,0.08452033
5,0.001541097,-0.001811567,-0.000190353,-0.01512395,0.005061966,-0.01933909,1.022246,-0.134115,0.08541258
5,0.000546839,-0.002120625,0.001850681,-0.01836376,0.01216234,-0.0208393,1.02124,-0.1344598,0.08738365
5,-0.001071298,0.001219098,0.001465595,-0.02219568,0.009037424,-0.01774803,1.019609,-0.1311532,0.08693078
5,-0.001719939,0.004230338,0.003188663,-0.02263612,0.003781956,-0.01547147,1.018947,-0.1281725,0.08858837
5,-0.000892265,0.002847205,0.003761192,-0.02061835,0.003279869,-0.01367028,1.019762,-0.1295836,0.08909786
5,-0.00125737,0.000658513,0.005110368,-0.01707557,-0.00010286,-0.007915115,1.019384,-0.1317978,0.09038661
5,-0.001303539,0.002317255,0.005079206,-0.01777985,-0.002405344,-0.001016499,1.019324,-0.1301619,0.09029783
5,-0.000981021,0.002358264,-0.000656649,-0.01678639,-0.003579837,0.002833813,1.019633,-0.1301412,0.08450735
5,-0.001318244,0.000879452,-0.004240455,-0.01390288,-0.005693897,0.005059027,1.019283,-0.1316379,0.08087192
5,-0.001064263,0.000746033,-0.003462091,-0.01426722,-0.005884579,0.008346946,1.019523,-0.1317867,0.08160151
5,-0.000399692,-0.001654818,-0.000812573,-0.01044519,-0.007790285,0.007663498,1.020173,-0.1342005,0.08420486
5,0.002376535,-0.002131759,-0.000202233,-0.006127128,-0.0068518,0.002400249,1.022936,-0.1346883,0.08477148
5,0.005649551,-0.00156625,-0.001741301,-0.004535671,-0.003077834,-0.001660275,1.026194,-0.1341317,0.08319102
5,0.004638576,-0.002162358,-0.000437716,-0.004334887,-0.000685585,-0.006191075,1.025169,-0.1347348,0.08445544
5,0.001716622,0.001947764,-0.000342209,-0.007559857,0.003932562,-0.009584925,1.022234,-0.1306302,0.08451391
5,-0.002094235,0.005564725,0.000107519,-0.008612419,0.006569513,-0.01373558,1.01841,-0.1270172,0.08492865
5,-0.006847138,0.005214275,0.001570392,-0.009285883,0.006311251,-0.01867893,1.013645,-0.1273701,0.08635853
5,-0.005862443,0.005275946,-0.000576738,-0.01166988,0.005726558,-0.01301987,1.014617,-0.1273091,0.08418038
5,-0.002603416,0.005152476,0.000383742,-0.0101943,0.00442962,-0.006247621,1.017864,-0.1274314,0.08511177
5,-0.003230325,0.002925906,0.001719729,-0.005983562,0.005392627,-0.007597491,1.017225,-0.1296548,0.08642056
5,-0.001015248,-0.000109664,-0.000567344,-0.00094335,0.01079469,-0.006110417,1.019428,-0.1326851,0.08410816
5,0.001831808,-0.000454084,-0.001543099,0.002280741,0.01744664,-0.0030736,1.022263,-0.1330224,0.08310888
5,0.001168786,0.000475405,-0.004467129,0.001962616,0.01653347,-0.002103318,1.021587,-0.132084,0.08016301
5,0.000362369,0.004037771,-0.007987772,0.001731949,0.01377279,-0.001788067,1.020767,-0.128511,0.07662198
5,-0.00258719,0.00961986,-0.006311026,0.000775086,0.01430543,-0.004469318,1.017805,-0.1229166,0.07827945
5,-0.002581358,0.007535935,-0.000317928,-0.002415915,0.009461706,-0.006647218,1.017798,-0.1249864,0.08425404
5,0.001470366,0.002970017,0.001093917,-0.004416682,0.008412698,-0.007967995,1.021836,-0.1295362,0.08564798
5,0.003025514,0.002097032,-0.003047145,-0.002559013,0.01433464,-0.01124158,1.023378,-0.1303909,0.08148957
5,0.003733795,0.001876779,0.000154958,0.000134072,0.01565493,-0.01196831,1.024073,-0.1305909,0.08467484
5,0.001870401,0.006365139,0.003707599,-0.001478348,0.01301636,-0.01189373,1.022197,-0.1260802,0.08821116
5,-0.000211979,0.00925414,0.001982817,-0.003303073,0.008911537,-0.01353831,1.020102,-0.1231668,0.08647065
5,0.000944617,0.006173304,0.003030031,-0.002177359,0.008616129,-0.01110269,1.021246,-0.1262211,0.08750284
5,0.001955521,0.005472043,-0.001505553,-0.001507549,0.01319447,-0.009440909,1.022246,-0.1268935,0.08295305
5,0.002602464,0.004589956,-0.005319741,-0.000615063,0.01611117,-0.01227322,1.022881,-0.1277444,0.07912545
5,0.001366131,0.003369215,0.000305779,-0.00405544,0.01567606,-0.01347166,1.021635,-0.1289315,0.08473824
5,0.00066534,0.003798814,0.002758171,-0.01101136,0.01151008,-0.01335491,1.020924,-0.1284659,0.08717847
5,-0.000458827,0.002692003,0.000961067,-0.01241911,0.01016189,-0.01080646,1.019791,-0.1295346,0.08536979
5,-0.004151469,0.004449849,0.000513586,-0.01392624,0.009859228,-0.007125784,1.01609,-0.1277364,0.08491139
5,-0.003591311,0.005515028,0.005765977,-0.01799241,0.000299036,-0.003543852,1.016643,-0.1266287,0.09015359
5,-0.001327598,0.003262001,0.009009467,-0.01793267,-0.009437556,0.004032125,1.018899,-0.1288373,0.09338777
5,-0.000152687,0.004570991,-0.001348575,-0.011486,-0.01183287,0.0124049,1.020067,-0.1274818,0.08302154
5,0.001043492,0.003580168,-0.009768125,0.006145503,-0.01511101,0.0195073,1.021257,-0.1284242,0.07459499
5,0.00040737,-0.001904784,-0.004445229,0.03044191,-0.02058165,0.01989048,1.020614,-0.1338588,0.07991183
5,-0.000613726,-0.004910137,0.000825213,0.04370605,-0.01830683,0.01503638,1.019587,-0.1368123,0.08517682
5,-0.00285751,-0.002598541,-0.001452042,0.04222952,-0.01239785,0.01405731,1.017337,-0.1344476,0.08289455
5,-0.003824228,0.004177694,-0.000267053,0.03964511,-0.0139191,0.009737257,1.016364,-0.1276174,0.08407489
5,-0.001411447,0.007733064,0.001310117,0.03758581,-0.01000595,0.008354122,1.018771,-0.1240074,0.08564776
5,0.00076549,0.008437519,-0.002234113,0.0309707,-0.00317421,0.01249199,1.020942,-0.1232476,0.08209955
5,0.001152786,0.009530737,0.001865797,0.02639069,-0.009964275,0.009669777,1.021323,-0.122098,0.08619578
5,0.000627088,0.008875965,0.005388221,0.02299066,-0.01340007,0.01056589,1.020792,-0.1226953,0.08971486
5,0.002528812,0.009660944,0.003703873,0.01967574,-0.005312117,0.01229513,1.022687,-0.1218514,0.08802763
5,0.003517868,0.009364387,0.005990563,0.02030411,-0.001134701,0.00903051,1.02367,-0.1220874,0.09031209
5,-0.000248085,0.008052473,0.004392823,0.01878417,-0.00481264,0.009102737,1.019899,-0.1233369,0.08871301
5,-0.002760569,0.007088965,0.002636752,0.01599203,-0.006486921,0.005473311,1.017381,-0.124236,0.08695664
5,0.000252413,0.00365789,0.002200908,0.01433005,0.002018838,0.003101021,1.020389,-0.1276007,0.08652167
5,0.003752424,0.004438195,-0.002683104,0.01244413,0.007382888,0.000469741,1.023884,-0.1267521,0.08163972
5,0.001626126,0.006296253,-0.00467376,0.01246088,-0.000536467,-0.00690617,1.021753,-0.1248237,0.07965219
5,-0.00069753,0.006489412,-0.003001165,0.01145144,-0.005571703,-0.004491357,1.019425,-0.1245585,0.08132876
5,-0.001223266,0.009518406,0.001062694,0.01268365,0.003417937,-0.003441367,1.018896,-0.1214556,0.08539719
5,-0.003654856,0.004736444,0.002996058,0.0140708,0.004111184,-0.01208732,1.016458,-0.1260839,0.08734129
5,-0.004025742,0.00913626,0.00042548,0.01228023,0.001004703,-0.01175323,1.016084,-0.1216043,0.08477703
5,-0.001259359,0.0118101,-0.001752486,0.006892319,0.008076805,-0.01152303,1.018847,-0.1188487,0.08260607
5,0.003869502,0.01120958,-0.002626662,-0.003039056,0.009099608,-0.01399123,1.023973,-0.1193653,0.08173948
5,-0.000356713,0.0107133,-0.000393007,-0.009559774,0.00202811,-0.01562952,1.019743,-0.1197754,0.08398118
5,-0.003668422,0.009175575,0.003017537,-0.01232091,-0.004282905,-0.01187094,1.016427,-0.1212244,0.08740009
5,0.001827122,0.004852841,0.003711527,-0.0128003,-0.001859204,-0.009659269,1.021919,-0.1254559,0.0881028
5,0.004988675,0.000835811,0.002748409,-0.0137989,0.004274333,-0.01127065,1.025077,-0.1293792,0.08714885
5,0.005165277,0.002074157,0.002479943,-0.0165448,0.006764186,-0.01435383,1.025249,-0.128045,0.0868901
5,0.004630111,0.003751101,-0.000647986,-0.01960095,0.0117739,-0.01620353,1.024711,-0.1262703,0.08377249
5,0.002863857,0.00364007,-0.004378498,-0.02132292,0.01464141,-0.0194395,1.022941,-0.1262819,0.08005285
5,0.001839746,0.004358162,-0.004463447,-0.02107189,0.01251248,-0.02489629,1.021915,-0.125463,0.07997915
5,0.001683657,0.001864956,-0.005402285,-0.02306482,0.0125624,-0.02497604,1.021757,-0.1278541,0.07905167
5,0.001762581,0.000413764,-0.007231584,-0.02288458,0.01194304,-0.02095966,1.021835,-0.1292022,0.07723353
5,0.001165277,0.003284358,-0.002298489,-0.01615435,0.01145869,-0.01867445,1.021238,-0.1262278,0.08217728
5,0.000829401,0.003269684,0.006096043,-0.0133324,0.01310797,-0.01914994,1.020903,-0.1261381,0.09058179
5,-0.000676816,0.004484775,0.009313729,-0.01726086,0.01271252,-0.01792248,1.019398,-0.1248183,0.09380889
5,-0.003177759,0.006794805,0.008637403,-0.01936785,0.006720332,-0.01083692,1.0169,-0.1224034,0.09314177
5,-0.001797439,0.0046005,0.005420091,-0.01844745,-0.002331107,-0.003453018,1.018283,-0.1244925,0.08993386
5,-0.000496137,0.003893321,0.003412968,-0.01807458,-0.003646756,-0.001353303,1.019588,-0.1250943,0.08793666
5,-0.00123825,0.003958487,0.003603411,-0.01819522,-0.000122333,-0.00275101,1.01885,-0.1249237,0.08813772
5,-0.001093717,0.004792399,0.003410799,-0.01982167,0.000635559,-0.002242728,1.018999,-0.1239843,0.08795653
5,-0.002441468,0.007690494,0.005874605,-0.02131693,0.002713506,-0.001386197,1.017655,-0.1209807,0.09043269
5,-0.002222092,0.00783289,0.005999794,-0.01641462,0.002386487,-0.004382962,1.017879,-0.1207328,0.09057128
5,-0.000513734,0.007293868,0.00658011,-0.01034781,-0.000894454,-0.007472534,1.019592,-0.1211662,0.09116625
5,-0.000865535,0.004601312,0.007801753,-0.01039056,-0.000302171,-0.009342694,1.019244,-0.123753,0.09240398
5,-0.000462408,0.001239681,0.001242499,-0.009834376,0.002348588,-0.008489969,1.019651,-0.1270086,0.08586243
5,-0.000652626,0.001678543,-0.001436031,-0.006107622,0.005650474,-0.00628293,1.019465,-0.1264638,0.08320327
5,-0.00094769,0.001542057,-0.001368255,-0.003891649,0.00544172,-0.006924365,1.019173,-0.1264944,0.08329193
5,-0.000315297,0.000689182,-0.003604136,-0.003166775,0.000271472,-0.003204641,1.019809,-0.1272418,0.08107823
5,-0.000946001,0.000118443,-0.002024436,-0.003436566,-0.000508761,0.002930084,1.019181,-0.1277077,0.08268112
5,-0.000634811,0.001494333,-0.001177405,-0.001859503,0.001183367,0.004638027,1.019495,-0.1262277,0.0835521
5,-0.000353463,0.003275312,0.000504533,0.002870713,0.000905529,0.006983289,1.019778,-0.1243435,0.08525853
5,0.00011951,0.000211735,0.001333099,0.005411275,0.00223253,0.007492093,1.020253,-0.127305,0.08611201
5,0.002107829,-0.002997881,0.00343822,0.007572076,0.003422624,0.005468366,1.022243,-0.1304138,0.08824243
5,0.002158992,-0.003106781,0.008104538,0.01304742,0.004626435,0.005769583,1.022296,-0.1304232,0.09293447
5,0.001069389,3.78E-05,0.002552717,0.01567458,0.004967378,0.004463215,1.021207,-0.127181,0.08740894
5,0.000453323,0.005413631,-0.002382414,0.01133924,0.002947642,0.002284615,1.020592,-0.1217094,0.08250078
5,0.000547533,0.006971874,0.0022579,0.00740831,0.003079714,0.001985789,1.020688,-0.1200573,0.08716869
5,0.000976895,0.004230652,0.005199312,0.009055417,0.004263253,0.001721855,1.021118,-0.1227065,0.09013824
5,0.000505374,0.002596353,0.005897183,0.007450933,0.004952037,0.002535384,1.020648,-0.1242503,0.09086485
5,0.000690105,0.005246936,0.005846743,0.003193748,0.005094705,0.00299963,1.020834,-0.1215108,0.09084389
5,0.000651371,0.007704314,0.002762621,0.004742397,0.003742809,0.004023833,1.020796,-0.118966,0.08779013
5,-0.000212299,0.00659833,0.001732923,0.005717887,0.002651202,0.00681583,1.019934,-0.1199858,0.08679176
5,5.33E-05,0.004316023,0.006985448,0.006580125,0.000586963,0.00617314,1.020202,-0.122183,0.09207658
5,0.000984642,0.002030416,0.01013372,0.0120888,-0.000836625,0.005423966,1.021135,-0.1243844,0.09525821
5,0.001843472,0.002345162,0.00895107,0.01497406,-0.002054228,0.006508175,1.021995,-0.1239865,0.09411021
5,0.002128075,0.003344342,0.007229368,0.0137664,-0.006386714,0.004376624,1.022282,-0.122905,0.09242473
5,0.002134085,0.00215604,0.001114042,0.01168516,-0.008077013,0.001876445,1.02229,-0.124012,0.08634736
5,0.002076799,0.002423507,-0.00351525,0.008905726,-0.007041073,-0.001319384,1.022236,-0.1236643,0.08175773
5,0.001932855,0.002904981,-0.000597477,0.004508853,-0.005769358,-0.00378061,1.022095,-0.1231035,0.08471664
5,0.001843018,0.002868912,0.002328262,0.001003897,-0.00255977,0.001910462,1.022009,-0.1230613,0.08768471
5,0.000210402,0.003903732,0.000708769,0.003003589,-0.001593042,0.007564328,1.02038,-0.1219493,0.08610855
5,-0.00151946,0.002796699,0.000738545,0.004313885,-0.001200168,0.003827509,1.018655,-0.12298,0.08618254
5,-0.002054692,0.001796996,0.003385119,0.002680333,-0.000311926,0.00078923,1.018125,-0.1239044,0.08887408
5,-0.003916512,0.00399686,0.002574029,0.003269177,-0.003029422,0.003660418,1.016268,-0.1216302,0.08810863
5,-0.00533762,0.005203496,0.003102175,0.002081938,-0.004803496,0.003432474,1.014853,-0.1203501,0.08868306
5,-0.003200358,0.003417562,0.003609374,0.00061601,-0.004437788,0.001735319,1.016995,-0.1220635,0.08923717
5,-0.001148032,0.0008428,-0.000310293,0.000436144,-0.003766052,0.001686264,1.019053,-0.1245664,0.08536501
5,-0.002086787,0.000390423,-0.001113349,-0.00209002,-0.00239946,0.000255297,1.018119,-0.1249478,0.08460996
5,-0.001670249,0.002993765,0.000623757,-0.001264261,-0.004302652,0.003124902,1.018539,-0.1222743,0.0863954
5,0.000127577,0.005673951,0.002301397,0.00165192,-0.01032725,0.009726943,1.020341,-0.1195249,0.08812156
5,0.000199485,0.006323412,0.002297385,0.003842529,-0.01468221,0.01790335,1.020415,-0.118807,0.08816615
5,0.003775996,0.007527532,0.002373217,0.0121685,-0.006969374,0.01717108,1.023996,-0.1174678,0.08833936
5,0.004262772,0.00654192,-0.004166122,0.01188859,-0.001483408,0.008784918,1.024485,-0.1183863,0.08184867
5,0.004896361,0.006641833,-0.009559368,0.01098272,0.00802562,0.009499296,1.02512,-0.1182194,0.07650382
5,0.003658774,0.00683272,0.000495425,0.00567566,0.006393155,0.006485307,1.023884,-0.1179613,0.08660638
5,0.001016731,0.004484332,0.01226367,-0.004072155,0.000447103,0.006752021,1.021244,-0.1202422,0.09842158
5,-0.000353136,0.002870424,0.01219097,-0.0101449,0.000667273,0.01147948,1.019876,-0.1217883,0.09839518
5,-0.002136899,-3.59E-05,0.005855352,-0.007814014,-0.01115769,0.01078584,1.018095,-0.1246265,0.09210567
5,-0.00416734,-0.006574487,-0.001844193,-0.000654671,-0.02064755,0.01328375,1.016068,-0.1310968,0.08445234
5,-0.003278182,-0.01037053,-0.008705112,0.007719535,-0.01736934,0.01852152,1.016961,-0.1348248,0.0776377
5,0.000542588,-0.007235778,-0.00122857,0.01235833,-0.02027082,0.0222029,1.020785,-0.1316228,0.08516029
5,0.002926336,-0.003668367,0.01330338,0.0148321,-0.0197387,0.02426765,1.023171,-0.1279894,0.09973782
5,0.0016129,-0.005169825,0.01336716,0.01552639,-0.01143077,0.01916318,1.021861,-0.1294266,0.09984689
5,-0.001168485,-0.004998441,0.009187853,0.004801211,-0.006309873,0.01363604,1.019083,-0.1291929,0.09571305
5,-0.002300855,-0.002597327,0.003860236,-0.006746128,-0.001196145,0.008801375,1.017954,-0.1267318,0.09043149
5,0.000301183,-0.002485504,-0.005103804,-0.0138016,0.003680395,0.000696039,1.020559,-0.1265624,0.08151422
5,0.003511004,-0.003019936,-0.002283083,-0.02214805,0.002935715,-0.001736598,1.023772,-0.1270419,0.08438227
5,0.003901537,-0.005766558,0.002900279,-0.01621345,0.0002779,-0.00393155,1.024165,-0.1297363,0.08961326
5,0.003858304,-0.008489738,0.001523316,-0.005749682,0.004545536,-0.008984179,1.024125,-0.1324101,0.08828405
5,0.001856708,-0.009499576,0.002667857,-0.005159389,0.007564377,-0.005060196,1.022127,-0.1333738,0.08947643
5,-0.00251569,-0.009145794,0.002526913,0.000582779,0.002237645,-0.000223386,1.017759,-0.1329774,0.08938337
5,-0.00211447,-0.005549436,0.000943404,0.003027571,0.000231346,-0.000704504,1.018164,-0.1293422,0.08784779
5,-0.000299824,-0.002975328,0.001362186,-0.000630047,0.000356717,0.00465805,1.019983,-0.1267334,0.0883145
5,-0.001531938,-0.001459493,0.001653491,0.006533787,-0.004696776,0.01276354,1.018756,-0.1251868,0.08865366
5,-0.000536625,-0.003853416,0.00159997,0.01514645,-0.01091765,0.01644279,1.019756,-0.127554,0.08864789
5,-0.000541508,-0.009009931,0.000211641,0.01912665,-0.01119709,0.01862089,1.019756,-0.1326878,0.08730715
5,-0.001369468,-0.005958974,-0.000758551,0.02019744,-0.00760753,0.01992989,1.018933,-0.1296181,0.0863843
5,0.000836162,-0.004191413,-0.002145441,0.01569215,-0.008976146,0.01998195,1.021144,-0.1278359,0.08504438
5,0.001445501,-0.008662236,-0.004615601,0.01616621,-0.009575984,0.01706205,1.021757,-0.1322964,0.08262065
5,0.002079235,-0.0121514,-0.005528712,0.01763075,-0.007662975,0.01143786,1.022396,-0.1357794,0.08175314
5,0.002467277,-0.0155331,-0.006646292,0.01565075,-0.005779639,0.004149555,1.022788,-0.1391595,0.08068004
5,0.00199794,-0.009790935,-0.003703678,0.01624692,-0.000164158,-0.003400509,1.022324,-0.1334205,0.08366568
5,0.003284377,-0.00088288,0.00031005,0.008140882,0.00013621,-0.002126091,1.023615,-0.1245207,0.08772072
5,0.002359693,-0.003175495,-0.00333652,-0.000523387,-0.001979742,-1.09E-05,1.022696,-0.1268266,0.08411364
5,0.002063116,-0.003890766,-0.004888588,0.002624734,0.000250661,-0.004732973,1.022405,-0.1275599,0.08259914
5,0.001567516,-0.001489305,-0.000954176,0.004767025,-0.000218807,-0.001516849,1.021916,-0.125181,0.08656909
5,-0.003373243,-0.004226691,0.000599266,0.004684322,-0.000673581,0.005002697,1.016982,-0.1279452,0.08815594
5,-0.005558123,-0.004488095,-0.001024768,0.006363548,-0.003338066,0.01002278,1.014804,-0.1282375,0.08656321
5,-0.002391294,-0.003446592,-0.003900926,0.007433465,-0.006175497,0.01726496,1.017978,-0.1272308,0.08371628
5,0.002193574,-0.00402673,-0.006561544,0.009271252,0.000844812,0.01410072,1.02257,-0.1278494,0.08108275
5,0.002702919,-0.001923784,-0.009057406,0.01186024,0.005202207,0.01039958,1.023087,-0.1257885,0.07861166
5,0.000591852,-0.001034628,-0.007405909,0.007676999,-0.004444243,0.01641572,1.020983,-0.1249446,0.08028532
5,0.000469361,-0.003911346,-0.004334047,0.00104943,-0.01317551,0.01758241,1.020867,-0.1278697,0.08337648
5,-0.001247621,-0.007004155,-0.007013449,0.00439323,-0.007357131,0.01837607,1.019158,-0.1310137,0.08071335
5,-0.000531598,-0.007093198,-0.007857408,0.006390422,-0.002693965,0.02494207,1.019881,-0.1311566,0.07988247
5,0.002499312,-0.005765761,-0.005614269,0.00335585,-0.00875245,0.02840155,1.022919,-0.1298859,0.08213536
5,0.001432093,-0.00663002,-0.005842396,0.000827476,-0.01372039,0.02672264,1.021859,-0.1308096,0.08191352
5,0.000450349,-0.006507257,-0.006093159,-0.009362412,-0.02320717,0.02473779,1.020885,-0.1307489,0.0816655
5,-0.001385298,-0.006718923,-0.007588381,-0.02061656,-0.03342406,0.02544684,1.019057,-0.1310253,0.08016942
5,-0.003409568,-0.01139222,-0.009292458,-0.02453928,-0.03166961,0.02184515,1.01704,-0.1357661,0.07846077
5,-0.00210677,-0.01602854,-0.008732271,-0.0230713,-0.0294172,0.01436542,1.01835,-0.1404726,0.07901254
5,-0.002228529,-0.01677276,-0.009950444,-0.02020178,-0.02556148,0.01087515,1.018236,-0.1412901,0.07778195
5,-0.002719265,-0.01580609,-0.01446111,-0.01958127,-0.01837933,0.005679814,1.017752,-0.1404002,0.07325466
5,-0.002015268,-0.01899953,-0.01881881,-0.01747031,-0.01998257,-0.002906415,1.018462,-0.1436743,0.06887585
5,-0.001102788,-0.02169917,-0.01754788,-0.01517892,-0.02171161,-0.008681843,1.01938,-0.1464588,0.07012072
5,0.001918344,-0.01514487,-0.01172156,-0.01181071,-0.01763738,-0.008456961,1.022407,-0.1399941,0.07591562
5,0.004259924,-0.007958147,-0.008020586,-0.00468773,-0.01599178,-0.00302626,1.024753,-0.132902,0.07957953
5,0.004069331,-0.006418514,-0.006602335,-0.000641454,-0.01635909,0.004782759,1.024566,-0.131462,0.08095504
5,0.00394013,-0.005549389,-0.006283266,-0.005732279,-0.01878424,0.01430687,1.024441,-0.1306973,0.08122584
5,0.003126212,-0.005792429,-0.006518645,-0.01382598,-0.02380771,0.01708304,1.023631,-0.1310493,0.08093684
5,0.000994344,-0.008995559,-0.005127053,-0.01039536,-0.02569535,0.01420169,1.021504,-0.1343655,0.08226968
5,0.00133505,-0.01318765,-0.004944368,-0.004484598,-0.02525513,0.01851859,1.021849,-0.1386746,0.08238871
5,0.002969884,-0.01747147,-0.006828751,-0.001209368,-0.02519416,0.02647146,1.023488,-0.1430795,0.08043603
5,0.003930485,-0.02026074,-0.009403117,0.01109062,-0.01933155,0.02952505,1.024454,-0.1459939,0.07778891
5,0.006200004,-0.02481139,-0.01063208,0.0193523,-0.000637368,0.01483507,1.026736,-0.1508084,0.07640137
5,0.002632637,-0.02342062,-0.004505436,0.0244408,-0.002161241,0.01945103,1.023176,-0.1495573,0.08244215
5,0.001307708,-0.01791008,-0.00531725,0.02405094,-0.003777881,0.02030669,1.02186,-0.1441922,0.08154024
5,-0.000195084,-0.01749303,-0.008916809,0.02380402,-0.00240331,0.01691746,1.020367,-0.1439265,0.07784658
5,0.000800654,-0.0154766,-0.01239809,0.02418774,-0.003765449,0.01727777,1.021373,-0.1420675,0.07426736
5,0.002720865,-0.01044499,-0.01535907,0.02046654,-0.007445972,0.01436432,1.023305,-0.1371993,0.07120461
5,0.001101173,-0.00987705,-0.0152553,0.01777656,-0.009764341,0.01368558,1.021698,-0.1368006,0.07120263
5,0.001541667,-0.01563187,-0.01517392,0.01804183,-0.00737739,0.01394609,1.022153,-0.1427302,0.07117411
5,0.002010863,-0.02223462,-0.01414124,0.02102009,-0.002666833,0.01255551,1.022636,-0.1495131,0.07209255
5,0.000754012,-0.01658014,-0.01599075,0.020747,-0.003244763,0.01292368,1.021395,-0.1440441,0.0701243
5,9.76E-05,-0.009939571,-0.01970548,0.01835904,-0.001346195,0.01019114,1.020755,-0.1375944,0.0662862
5,-0.00167856,-0.01333404,-0.01712305,0.01561747,0.00483047,0.006771543,1.018996,-0.1411849,0.06874041
5,-0.000698675,-0.01260787,-0.015299,0.01011725,0.004880083,0.002934576,1.019993,-0.1406597,0.07043117
5,0.001058695,-0.01112594,-0.01483164,0.009031938,0.005771695,-0.00133221,1.021769,-0.1393835,0.07076005
5,-0.000239473,-0.01260699,-0.0129403,0.00982156,0.01100488,-0.007281912,1.020489,-0.1410746,0.0725077
5,0.000306085,-0.01119409,-0.01306119,0.007503543,0.0152342,-0.01486549,1.021054,-0.1398758,0.07223797
5,0.002165138,-0.01136543,-0.01094027,0.004225188,0.01732484,-0.01033261,1.022932,-0.1402652,0.074205
5,0.002936449,-0.01108096,-0.009279148,-0.000632105,0.01501207,-0.00496436,1.023723,-0.1402023,0.07570737
5,0.002231776,-0.008788955,-0.01040655,-0.003640955,0.01414599,-0.00979723,1.023038,-0.138135,0.0744166
5,-0.000157899,-0.008012067,-0.01138894,-0.004926807,0.01639041,-0.007852583,1.020668,-0.1375858,0.07326648
5,-0.00308829,-0.009153529,-0.01233719,-0.005563518,0.01568536,-0.001982238,1.017759,-0.1389575,0.07214635
5,-0.006030253,-0.01116134,-0.008842961,-0.004566296,0.01254499,-0.000527019,1.014837,-0.1411977,0.07546475
5,-0.003858783,-0.01015828,-0.00362341,-0.006571847,0.009165583,-0.004488859,1.017029,-0.1404289,0.08050477
5,0.000569559,-0.009284361,-0.004684814,-0.009082518,0.009980103,-0.01255709,1.021478,-0.1397909,0.07926054
5,-0.001602621,-0.01134679,-0.01013758,-0.008313423,0.01120719,-0.01279847,1.019325,-0.1420907,0.07362213
5,-0.002547936,-0.0125735,-0.01332945,-0.007404467,0.006558688,-0.01180942,1.018399,-0.1435559,0.07024209
5,-0.000412184,-0.01368246,-0.01387966,-0.005571209,0.004059761,-0.01255013,1.020553,-0.1449044,0.06950133
5,-0.002046599,-0.01405786,-0.01409409,-0.002640665,0.005797546,-0.006274493,1.018936,-0.1455204,0.06909397
5,-0.001917794,-0.01569092,-0.01195714,0.000575725,0.007584767,-0.006202748,1.019081,-0.147395,0.07103561
5,-0.001867072,-0.01898927,-0.01182789,0.004249052,0.00993749,-0.01098303,1.019148,-0.150936,0.0709672
5,-0.003866251,-0.01540373,-0.01316513,0.006970124,0.01095327,-0.01134307,1.017163,-0.1475942,0.06943003
5,-0.002742015,-0.01054012,-0.008817152,0.01080493,0.009947578,-0.0130813,1.018301,-0.1429756,0.07357591
5,-0.002602022,-0.01195427,-0.005353338,0.01444604,0.007486499,-0.01210377,1.018454,-0.144636,0.07683562
5,-0.001980777,-0.01195392,-0.004299783,0.01479175,0.005270785,-0.01045009,1.019086,-0.1448829,0.07768339
5,0.001679416,-0.01073443,-0.003601465,0.01159491,0.006118501,-0.01138947,1.022756,-0.1439115,0.07817467
5,0.003066472,-0.01135014,-0.007106943,0.005801346,0.007304805,-0.01211441,1.024152,-0.1447761,0.0744613
5,0.001766831,-0.01035253,-0.008675503,0.00672152,0.006414088,-0.01435155,1.02286,-0.1440279,0.07268436
5,0.000439336,-0.008059642,-0.007421815,0.01170393,0.006083873,-0.01307756,1.021539,-0.1419849,0.07372939
5,0.00082155,-0.004116732,-0.008248011,0.01111919,0.006611864,-0.01072937,1.021926,-0.1382919,0.07269446
5,-0.000281935,-8.95E-05,-0.008769173,0.01125113,0.005978919,-0.0093471,1.020828,-0.1345144,0.07196462
5,-0.002678669,-2.35E-05,-0.008265123,0.009880294,0.004645141,-0.006004031,1.018435,-0.1346973,0.07226021
5,-0.001630155,-0.002537744,-0.006476774,0.00678078,0.002340054,-0.007275435,1.019487,-0.1374591,0.07384044
5,-0.00122692,-0.0063864,-0.003540238,0.008651938,0.00120004,-0.008670717,1.019893,-0.1415534,0.07656938
5,-0.00212432,-0.008953449,-0.001404949,0.009591211,0.004524495,-0.007159934,1.018998,-0.144364,0.07849786
5,-0.001462141,-0.007411561,-0.001724332,0.01063406,0.007825145,-0.008852311,1.019661,-0.1430633,0.07797282
5,-0.001662509,-0.005296781,-0.00347037,0.01180836,0.008702775,-0.01028482,1.019461,-0.1411873,0.07602266
5,-0.001820733,-0.001173035,-0.003731849,0.009798721,0.009806432,-0.01086122,1.019302,-0.1372998,0.0755589
5,-0.001340795,0.004494475,-0.004300823,0.007563438,0.0102067,-0.01080635,1.01978,-0.1318656,0.07478972
5,-0.000880985,0.001368878,-0.004257386,0.004991557,0.009694391,-0.008917811,1.020237,-0.1352211,0.07463523
5,-0.000160144,-0.003981216,-0.003145549,0.005734934,0.00960718,-0.009198747,1.020954,-0.1407973,0.07555159
5,-0.001033348,-9.91E-05,-0.003671238,0.00657166,0.008047837,-0.009024544,1.020077,-0.1371371,0.07483302
5,-0.002551273,0.003499205,-0.002440736,0.004134562,0.005186103,-0.005928319,1.018554,-0.1337564,0.07587342
5,-0.003397929,0.003837413,-0.001334304,0.004553056,0.005479422,-0.002696768,1.017701,-0.1336311,0.07679268
5,-0.00456759,0.004232781,-0.002739738,0.004553066,0.006938539,0.000640424,1.016524,-0.1334434,0.0752032
5,-0.003777811,0.002290153,-0.002950567,0.001733366,0.006205238,0.000259773,1.017306,-0.1355881,0.07481162
5,-0.001358797,0.003366624,-0.002666855,-0.000936503,0.004895796,-0.002776651,1.019716,-0.1347079,0.07491799
5,-0.001741503,0.005056211,-0.002294199,-0.002213755,0.001796609,-0.002351095,1.019323,-0.1332084,0.0751168
5,-0.003701668,0.004039237,-0.002563171,-0.002761791,0.000204786,-0.004271518,1.017351,-0.1344091,0.07467759
5,-0.004330329,0.005923625,-0.004053244,-0.004768817,0.003911866,-0.009719146,1.01671,-0.1327017,0.07302094
5,-0.002886093,0.007194513,-0.004997359,-0.006561776,0.007950298,-0.01230961,1.01814,-0.1316008,0.07191392
5,-0.00064073,0.006538747,-0.004540712,-0.007389351,0.009623788,-0.01351743,1.02037,-0.1324194,0.0722113
5,-0.001410628,0.004550937,-0.002525021,-0.00664112,0.0105823,-0.0137475,1.019584,-0.1345625,0.0740713
5,-0.00218705,0.002186785,-0.002400478,-0.004793323,0.01388685,-0.01119056,1.01879,-0.1370743,0.07404372
5,-0.001649368,0.005171618,-0.000836278,-0.009675544,0.01496756,-0.00689927,1.019289,-0.1343615,0.07531443
5,-0.001684421,0.002812816,-9.56E-05,-0.01382584,0.009419482,-0.006752819,1.019233,-0.1368448,0.07591377
5,-0.001073467,0.001947319,0.000409804,-0.009792307,0.006544515,-0.002038098,1.019822,-0.1378271,0.07628165
5,-0.001573122,0.003454894,0.0026627,-0.004009801,0.005227139,0.001912842,1.019299,-0.1364286,0.07840084
5,-0.000373687,0.006354478,0.002614901,-0.003277687,0.00420605,0.005030236,1.020475,-0.1336307,0.07822336
5,0.000171405,0.007156773,0.001618964,0.001251181,0.001955286,0.005253311,1.020996,-0.1329225,0.07710193
5,-0.00095304,0.006764374,0.002712963,0.004824699,-0.000558137,-0.002007196,1.019846,-0.1334015,0.0780748
5,-0.001406401,0.007246682,0.002718145,0.002000091,-0.001803813,-0.003477111,1.019367,-0.1329982,0.07796333
5,-0.000389718,0.008693259,0.001142052,0.000862381,-0.002210574,0.000786173,1.020357,-0.1316229,0.0762752
5,0.001565337,0.009641301,-0.002239441,-0.000625527,-6.08E-05,0.002300457,1.022286,-0.1307386,0.07278632
5,0.001584039,0.005488323,-0.007046758,-0.00364781,0.002060114,0.005961241,1.022278,-0.1349475,0.06787617
5,0.000486932,0.001582171,-0.005292962,-0.003607685,0.002712684,0.004889174,1.021153,-0.1389019,0.06953145
5,3.33E-05,0.004592998,-0.002056732,-0.003800087,0.007471255,-0.00237421,1.020673,-0.1359318,0.07267315
5,3.30E-05,0.007319864,-0.00372445,-0.004480627,0.01308155,-0.004808246,1.020645,-0.1332384,0.07091466
5,0.000503925,0.005501388,0.000447731,-0.004202665,0.01040666,-0.004256735,1.021089,-0.1350833,0.07499965
5,-2.94E-06,0.005378785,0.005687667,-0.006815228,0.004211843,-0.00345724,1.020556,-0.1352253,0.08015592
5,-0.000693436,0.006586644,0.004063156,-0.009729292,0.002836737,-0.001082855,1.019839,-0.1340301,0.07845136
5,-0.000767032,0.005510796,0.004766276,-0.009493836,0.002765027,0.001855511,1.01974,-0.1351119,0.07907822
5,0.000448852,0.005311088,0.007473751,-0.007146299,0.004960042,0.002372728,1.02093,-0.135311,0.08171343
5,0.002608663,0.003753072,0.007720369,-0.001139883,0.009093364,-0.001953003,1.023064,-0.1368622,0.08189199
5,0.001941501,0.001366855,0.006585699,0.00328772,0.007965532,-0.006491406,1.022372,-0.1392355,0.08069371
5,0.001230269,0.003305236,0.002881237,0.000168133,0.006880239,-0.01022178,1.021637,-0.1372785,0.0769303
5,0.002130045,0.00394588,-0.000731618,-0.003929757,0.006343572,-0.01276023,1.022514,-0.1366139,0.07326319
5,0.000664136,0.003398026,0.000204544,-0.005288639,0.004953895,-0.01098645,1.021025,-0.1371326,0.07414969
5,-0.000841465,0.005814905,0.003704196,-0.005259373,0.006528042,-0.01017295,1.019498,-0.1346817,0.07760411
5,-0.000966667,0.006257842,0.004966663,-0.004125706,0.003496865,-0.009985994,1.019352,-0.1342002,0.07882568
5,-0.000631366,0.004930303,0.003937171,-0.006280044,0.001211069,-0.00877316,1.019667,-0.1354846,0.07775962
5,0.001148866,0.003101926,0.000547986,-0.008507426,0.004549582,-0.008861586,1.021429,-0.1372655,0.07433817
5,0.002414978,-0.002127736,-0.004503058,-0.005676015,0.003055308,-0.00734951,1.022677,-0.1424436,0.06925904
5,0.001951365,-0.005016415,-0.003004802,-0.001515851,0.00197193,-0.007846135,1.022196,-0.1452771,0.07073309
5,0.001020697,0.000227173,0.000530679,0.006680008,0.001326522,-0.01092826,1.021249,-0.1399752,0.07424789
5,0.001289633,0.005332045,-0.002302106,0.01456284,-0.003572948,-0.01159209,1.021502,-0.1348094,0.07139767
5,0.002353963,0.005701589,-0.002477481,0.01143843,-0.002642061,-0.009287717,1.022552,-0.1343764,0.07120782
5,0.001780285,0.009233356,-0.00178547,0.005465124,-0.001156072,-0.003121105,1.021966,-0.1307789,0.07188807
5,-0.000292897,0.01273926,-0.000587435,-0.00053798,-0.006572157,0.002685161,1.01988,-0.1272049,0.07307677
5,-0.002942446,0.01002289,0.008742364,-0.01210031,-0.01296688,0.007482563,1.01722,-0.1298506,0.08239952
5,-0.003535288,0.00695544,0.00969264,-0.01641951,-0.01899799,0.01174206,1.016617,-0.1328447,0.08334509
5,0.000439619,-0.001069404,0.000659553,-0.008101582,-0.01755796,0.009059925,1.020583,-0.1407934,0.07430983
5,0.004127751,-0.01242637,-0.001936622,0.000533368,-0.008292663,0.002917965,1.024263,-0.1520718,0.0717141
5,0.002651998,-0.00931423,-0.00178965,0.004848885,0.000535616,-0.003468751,1.02278,-0.1488794,0.07186395
5,-0.000555065,-0.000708662,-0.00110829,0.002239343,0.008865756,-0.008564391,1.019566,-0.1401926,0.07255037
5,-0.000903392,0.000950106,-0.000352747,-0.003593498,0.009216937,-0.00406349,1.019212,-0.1384521,0.07331292
5,0.000364113,0.003262658,-0.001310245,-0.005605036,0.006319824,0.00102531,1.020475,-0.1360577,0.07236416
5,0.00100066,0.00365366,-0.001165852,-0.01064731,0.007730468,-0.002316035,1.021108,-0.1355849,0.07251882
5,0.000483583,0.003920346,-0.001136353,-0.01227226,0.002018952,-0.002118114,1.020587,-0.1352365,0.07255992
5,-0.001474384,0.005337834,0.002082441,-0.005736097,-0.002516936,0.0012971,1.018627,-0.1337373,0.07579149
5,-0.003180918,0.00100528,0.004853393,-0.004330973,-0.002929874,0.002146728,1.016919,-0.1379883,0.07857631
5,-0.002957802,-0.001847702,0.000332684,-0.004851463,-0.008646128,0.004693412,1.017141,-0.1407599,0.07407057
5,-0.001288386,-0.003219661,-0.003431184,-0.004329919,-0.009471778,0.004782454,1.018809,-0.1420509,0.07032275
5,0.000571861,-0.004928014,-0.003026126,4.60E-05,-0.005783737,0.003394793,1.020668,-0.1436789,0.07074475
5,0.003486015,-0.004438396,-0.002927264,0.01381241,-0.000792702,0.003262147,1.023582,-0.14311,0.07086121
5,0.005834259,-0.005455571,-0.004202101,0.02230641,0.003650053,-0.002394313,1.02593,-0.1440494,0.06960436
5,0.002743557,0.000260074,-0.005714988,0.02146334,0.002104372,-0.007900447,1.02284,-0.1382577,0.06810958
5,-0.000919754,0.007298212,-0.006914901,0.01941968,0.002723032,-0.006686611,1.019177,-0.1311455,0.06692758
5,-0.000713887,0.004174107,-0.007220893,0.01381934,0.003218942,-0.004324844,1.019385,-0.1341974,0.06663895
5,-0.000374866,0.002132958,-0.005266041,0.003475494,0.002019075,-0.004253782,1.019726,-0.136168,0.06861026
5,0.001171485,0.002204852,-0.003498389,-0.001570772,0.002561332,-0.004647861,1.021275,-0.1360271,0.07039318
5,0.002781842,0.000179703,-0.003330692,-0.000317757,-0.00019765,-0.005596383,1.022888,-0.1379848,0.07057477
5,0.002260647,-0.000518245,-0.004600634,-0.003318441,0.000259916,-0.008446529,1.02237,-0.1386169,0.0693172
5,0.002819735,-0.002591868,-0.00664623,0.002606472,0.004473163,-0.008526967,1.022934,-0.1406263,0.06728232
5,0.003862961,-0.005500749,-0.005188782,0.01376533,0.006613677,-0.009353654,1.023982,-0.1434727,0.06874864
5,0.003974848,-0.002310565,-0.000867334,0.01079074,0.002682376,-0.01518554,1.024099,-0.140222,0.07307697
5,0.005003374,0.002641793,0.002046284,0.009806578,-0.01425158,-0.01809143,1.025135,-0.1352114,0.07599545
5,0.005324701,-0.003930995,0.000577202,0.008530243,-0.03243686,-0.02166662,1.025473,-0.1416741,0.07453064
5,-0.000667612,-0.008170728,0.003105959,0.01741838,-0.02676116,-0.01558095,1.019491,-0.1458623,0.0770592
5,-0.004664309,-0.01347027,0.004696265,0.02546787,-0.02694071,-0.01280395,1.015506,-0.1511128,0.07864804
5,-0.001731485,-0.004111441,0.003498899,0.02836278,-0.02629066,-0.01516105,1.018452,-0.1417079,0.07744821
5,0.004495497,0.007916778,0.003788805,0.03011453,-0.01145644,-0.01662196,1.024693,-0.1296369,0.07773493
5,0.005397644,0.00420694,0.001873008,0.02684708,0.008611489,-0.01862143,1.02561,-0.1333071,0.07581548
5,0.002472297,-0.005370951,-0.007062486,0.01682298,0.02297385,-0.02749612,1.0227,-0.1428482,0.066876
5,0.00198941,-0.01161818,-0.01524848,0.001697347,0.03106761,-0.04257558,1.022235,-0.1490614,0.05868553
5,0.003476208,-0.006259441,-0.009171761,-0.006562177,0.03113045,-0.04322442,1.023739,-0.1436716,0.06475687
5,0.005611737,0.008325709,0.00348892,-0.008099897,0.0207642,-0.02377973,1.025894,-0.1290586,0.07741084
5,0.003655807,0.01542867,0.005644855,-0.01095551,0.004916794,-0.005658577,1.023959,-0.1219308,0.07955869
5,-0.002355231,0.01421577,0.004396615,-0.007515912,-0.004939498,0.001509139,1.017969,-0.1231212,0.07830124
5,-0.006467178,0.01170681,0.004744473,0.006781247,-0.01055117,0.007443318,1.01388,-0.1256091,0.07863913
5,-0.006979434,0.009094038,0.004057722,0.02212623,-0.0109023,0.01701627,1.013391,-0.1282016,0.07794198
5,-0.005180861,0.004121154,0.00744128,0.02834005,-0.008445425,0.02082912,1.015214,-0.1331546,0.081315
5,-0.004203434,-0.001254702,0.007723042,0.03272694,-0.01681845,0.02084615,1.016215,-0.1385105,0.08158643
5,0.000689308,0.000193582,0.004971631,0.04019045,-0.02169092,0.02262379,1.021132,-0.1370421,0.07882527
5,0.005700629,0.001354097,0.003882407,0.03922901,-0.01626256,0.0162043,1.026166,-0.1358616,0.07772717
5,0.002489629,-0.001706177,-0.005813642,0.03757141,-0.0128954,0.000514625,1.022978,-0.1389018,0.06802327
5,0.002933737,-0.0015899,-0.01383714,0.0405905,-0.01034539,-0.01279149,1.023444,-0.1387655,0.05999279
5,0.006825074,-0.001155039,-0.006453667,0.03119343,-0.009472793,-0.005716995,1.027358,-0.1383109,0.06736973
5,0.00689128,0.002825697,0.000224113,0.01806667,-0.004959672,0.01316106,1.027447,-0.1343107,0.07404096
5,0.00602398,0.01224488,-0.004150763,0.009848551,0.003855103,0.01546031,1.026603,-0.1248722,0.06965931
5,0.003200422,0.01791895,-0.005634876,-0.003351339,0.007928456,0.01118737,1.023803,-0.1191788,0.06816807
5,0.003174478,0.01863958,-0.000288858,-0.01109509,0.01604438,0.002411106,1.023801,-0.1184379,0.07350647
5,0.003663572,0.01721002,0.000408919,-0.01096945,0.02821586,-0.01546072,1.024315,-0.1198457,0.07419606
5,0.001599877,0.01829123,-0.00036526,-0.01226163,0.02785058,-0.02010421,1.022278,-0.1187403,0.07341315
5,0.001670549,0.01790165,0.001113157,-0.01902686,0.01841031,-0.01905772,1.022375,-0.1191027,0.07488236
5,-0.000343947,0.008567943,0.001095827,-0.03092159,0.01481022,-0.02287841,1.020388,-0.1284056,0.07485543
5,-0.000697034,0.00122894,0.001994669,-0.02961505,0.01742608,-0.02208369,1.020063,-0.13571,0.07574439
5,0.000749643,0.005287773,0.002861132,-0.01312412,0.02056185,-0.01674477,1.021539,-0.1316126,0.07660081
5,-0.003294898,0.009372244,0.00383107,0.006154863,0.01972512,-0.007963556,1.017524,-0.1274859,0.07756073
5,-0.007816719,0.00182202,0.001755722,0.01944064,0.01655617,0.001394649,1.013031,-0.1349903,0.07547555
5,-0.009267778,-0.002957385,-0.00364372,0.02065354,0.01168205,0.006702665,1.01161,-0.1397203,0.07006659
5,-0.00228332,0.003772042,-0.003440081,0.03029849,0.002986885,0.003190288,1.018623,-0.1329384,0.07026099
5,0.007276387,0.005812752,-0.003349177,0.04052393,0.003925336,-0.001793281,1.02821,-0.1308424,0.0703428
5,0.00457382,0.002136554,-0.005894117,0.02663345,0.008089433,-0.001070396,1.025535,-0.1344606,0.06778871
5,0.002272845,-0.00031065,-0.005666604,0.01443535,0.003795268,-0.002223103,1.02326,-0.1368473,0.06800683
5,0.006299183,-0.000146513,-0.005656944,0.01357743,0.008047131,-0.005909433,1.027313,-0.1366205,0.06800661
5,0.004805501,0.002684992,-0.005523061,0.01287207,0.01428903,-0.01368007,1.025845,-0.1337244,0.06812989
5,0.001813678,0.004513595,-0.004838752,0.01484628,0.01461238,-0.01957457,1.022879,-0.1318295,0.06880267
5,-0.000847081,0.008177531,-0.001105227,0.01179961,0.0157077,-0.01536664,1.020244,-0.1280978,0.07252361
5,-0.003020043,0.01024653,0.007408448,0.008911814,0.01193905,-0.00787834,1.018097,-0.1259594,0.08102363
5,-0.001121771,0.01012733,0.01305994,0.008586835,0.008566311,0.000539738,1.020021,-0.1260074,0.0866607
5,-0.00164271,0.01351189,0.01167788,0.001026744,0.002985732,0.008897228,1.019525,-0.1225498,0.08526401
5,-0.003302722,0.01259975,0.00837046,-0.003322072,-0.007321872,0.01738466,1.01789,-0.1233867,0.08194239
5,-0.002655816,0.009058526,0.008728276,-8.67E-06,-0.01143232,0.02008109,1.018561,-0.1268501,0.08228697
5,-0.002488423,0.007129104,0.005905797,0.00627681,-0.01210268,0.01633719,1.018752,-0.1286992,0.07945262
5,-1.08E-05,0.001952992,-0.002363076,0.01759956,-0.01017052,0.01773617,1.021253,-0.1337923,0.07117351
5,0.002842463,-0.001532549,-0.006664491,0.03013827,-0.006380945,0.01346595,1.024128,-0.1371924,0.06686348
5,0.003991393,-0.001289623,-0.008242667,0.03296566,-0.00277057,0.001533778,1.025298,-0.136862,0.06527802
5,0.00408053,0.001170457,-0.004691195,0.02368657,0.002810039,-0.004509125,1.025407,-0.1343127,0.06882314
5,0.001944938,0.005926312,0.004131544,0.01415196,0.007499864,-0.004949266,1.023292,-0.1294664,0.07764013
5,0.000860951,0.009517162,0.005518315,0.004404708,0.009796891,-0.003745413,1.022227,-0.125784,0.0790217
5,-0.001135598,0.01391961,0.004701708,-0.008451729,0.006426918,-0.006391563,1.02025,-0.1212887,0.07820061
5,-0.003872253,0.0161793,0.009859043,-0.01417,0.00073735,-0.003554158,1.017532,-0.1189347,0.08335442
5,-0.00277639,0.01261863,0.01414327,-0.01146799,-0.004149946,0.002851112,1.018646,-0.1223993,0.08763644
5,-0.000645525,0.01075329,0.01317406,-0.007873091,-0.00708934,-0.000797394,1.020794,-0.1241663,0.08666681
5,0.001448874,0.006811673,0.01028684,-0.007777945,-0.001770857,-0.000314386,1.022905,-0.1280073,0.08378151
5,0.001281741,-0.002019272,0.01036238,-0.005271683,0.001444072,0.002297045,1.022754,-0.1367354,0.08386174
5,-0.000482017,-0.005151993,0.009042878,-0.001328785,0.002143786,0.001444027,1.021006,-0.1397633,0.08255002
5,-0.000586224,-0.001639602,0.007126426,-0.001683185,0.004250539,0.005631682,1.020917,-0.1361446,0.08064469
5,-0.00253936,0.004224681,0.00828202,-0.000288742,-0.001425837,0.00566071,1.018978,-0.1301731,0.0818149
5,-0.000834132,0.006795984,0.002899211,-0.01038199,0.001604088,0.009390605,1.020709,-0.1273855,0.07647216
5,-0.000826293,0.008276423,0.001349258,-0.01094802,0.001817781,0.00956197,1.020728,-0.1257962,0.07494759
5,0.001139357,0.005262997,0.00115557,-0.01225145,0.00325619,0.01171891,1.022704,-0.1287001,0.07478262
5,0.001119011,0.001796353,0.00372148,-0.01317484,0.003239345,0.009768759,1.022694,-0.1320567,0.07738036
5,-0.001167618,0.001893711,0.000797894,-0.01463288,0.0027021,0.00227733,1.020416,-0.1318489,0.0744915
5,2.09E-05,0.000666597,-0.001310938,-0.01649592,0.004302379,-0.001330586,1.021613,-0.1329653,0.07242009
5,0.001854994,-0.000832797,0.001564718,-0.01602812,0.007385319,0.000476426,1.023455,-0.1343542,0.07533557
5,0.003637525,-0.004277762,0.001192037,-0.01777415,0.01255283,0.002460193,1.025244,-0.1376889,0.07500485
5,0.002311782,-0.004116508,0.000779666,-0.0158128,0.01376448,-0.005923374,1.023925,-0.1374183,0.07463637
5,-0.001279066,-0.000623923,-0.000575944,-0.01423476,0.01182099,-0.01437724,1.02034,-0.1338175,0.07332636
5,-0.000940408,-0.001337708,-0.002374908,-0.01684771,0.008592069,-0.01023383,1.020684,-0.1344246,0.07157445
5,-0.002637544,0.000820398,-0.00073119,-0.01677398,0.001980836,-0.006233281,1.018993,-0.1321616,0.07326639
5,-0.005894736,0.003492364,0.000495309,-0.01614618,-0.003154652,-0.002284972,1.01574,-0.1293866,0.074542
5,-0.005894595,0.002101621,0.002196707,-0.0119856,-0.001273577,0.006542134,1.015745,-0.1306764,0.07629319
5,-0.004991226,0.001874161,0.004276989,-0.006965884,0.002954574,0.008706998,1.016651,-0.1308048,0.07842383
5,-0.00170723,0.002143753,0.002722026,-0.005309073,0.001023756,0.006472353,1.019938,-0.1304382,0.07691976
5,-0.00049269,0.00202358,-0.00233311,-0.002043094,-0.005041977,0.007539235,1.021153,-0.1304634,0.07191602
5,-0.001328223,0.001338506,-0.003619639,-0.00012621,-0.01030576,0.00597939,1.020318,-0.1310555,0.07068122
5,0.000564567,-1.03E-05,0.001595204,0.001295045,-0.009070096,0.003115849,1.022209,-0.1323134,0.07594786
5,-0.000414865,-0.001528787,0.001815494,0.005616113,-0.000853975,0.004996484,1.021228,-0.1337431,0.07621983
5,-0.00219271,-0.001652086,-0.002796082,0.00680974,0.007756481,0.00763791,1.019447,-0.1337798,0.07165972
5,-0.002176688,-0.001021647,-0.001250661,0.003343595,0.01458686,0.008511307,1.019458,-0.1330652,0.07325624
5,-0.002162972,-0.003092565,0.004397333,0.002515949,0.01205513,0.006851832,1.019467,-0.1350545,0.07895482
5,-6.59E-06,-0.002779304,0.008724007,0.004312671,0.007886929,0.003698532,1.021617,-0.1346623,0.08333156
5,0.000649036,0.001180482,0.007653411,0.003582706,0.01031585,0.005367036,1.022265,-0.1306264,0.08231072
5,-0.001138299,0.002660019,0.001130999,0.000870631,0.00129294,0.007971962,1.020469,-0.1290735,0.07583797
5,-0.002725599,0.001861509,-0.004377866,-0.001728709,-0.008174103,0.006375123,1.018873,-0.1298015,0.07037875
5,-0.002190623,0.001330703,-0.008143506,0.002098609,-0.002444156,0.00463387,1.019398,-0.1302645,0.06666255
5,0.00037378,0.0013691,-0.007353399,0.009157763,0.002021739,0.002859625,1.021952,-0.1301608,0.06750148
5,0.000963954,-0.000982075,-0.003257565,0.009651808,0.002894293,0.000717151,1.022531,-0.1324492,0.07164508
5,0.001674709,-0.003917785,-0.002299741,0.00876259,0.004178781,0.000260891,1.023229,-0.1353246,0.07264928
5,0.002393557,-0.003240079,0.00365547,0.006731048,0.006061353,0.001232159,1.023935,-0.1345892,0.07864934
5,0.00132871,-0.001227194,0.008693366,3.55E-05,0.009420345,0.000795512,1.022857,-0.1325213,0.08373059
5,-0.000378742,0.003313441,0.002030966,-0.005212473,0.006840969,-0.000737953,1.021136,-0.1279284,0.07711028
5,-0.003021581,0.007363936,-0.002179145,-0.006286084,0.002235885,-0.00026843,1.01848,-0.1238283,0.07294119
5,-0.002370756,0.002781675,0.001221973,-0.006242216,0.00415105,-0.000754159,1.019117,-0.1283634,0.07638229
5,-0.001218643,-0.002614311,0.006798686,-0.008248991,0.006843831,-0.001573818,1.020255,-0.1337142,0.08199794
5,-0.002258606,-0.001223995,0.01038638,-0.007904283,0.006112272,-0.001050783,1.019201,-0.1322808,0.08562372
5,-6.80E-05,-0.001924697,0.00678571,-0.004190812,0.006006346,-0.000120773,1.021377,-0.1329406,0.0820606
5,0.001553711,-0.005042281,0.000903574,-0.003286094,0.006923852,0.002688294,1.022984,-0.1360193,0.07621583
5,0.000665898,-0.003880922,5.35E-05,-0.004132225,0.00664083,0.002409682,1.022081,-0.1348214,0.07540304
5,0.000346229,-0.004118679,0.002835803,-0.005339633,0.004989197,0.002004783,1.021746,-0.135025,0.07822254
5,-0.000881051,-0.006130685,0.006112892,-0.005675157,0.002384868,0.00558453,1.020504,-0.1370054,0.08153674
5,-0.002592068,-0.004885178,0.01026647,-0.004872964,0.000936778,0.006213082,1.018777,-0.135731,0.08572749
5,-0.003120397,-0.004144963,0.00860846,-0.004841301,0.000401791,0.005732713,1.018234,-0.1349648,0.084107
5,-0.002909704,-0.004015796,0.002676881,-0.003282366,0.000102311,0.003912135,1.018429,-0.1348126,0.07821358
5,-0.002640723,-0.003584819,-0.000105377,-0.002574604,0.001404705,-0.00204751,1.018682,-0.1343617,0.07547026
5,-0.001225301,-0.004248331,-0.006244717,-0.003202474,0.002350113,-0.006774018,1.020081,-0.1350083,0.06937052
5,0.000307127,-0.00393481,-0.006549318,-0.002002895,0.003188848,-0.005967985,1.021598,-0.1346809,0.0691059
5,0.000781824,-0.003286956,0.00062941,0.000595058,0.005186617,-0.001975574,1.022055,-0.1340223,0.07632459
5,0.000396304,-0.00154599,0.002798479,0.003440973,0.005899982,-0.002238645,1.021653,-0.1322737,0.07853337
5,-0.001906654,0.000975269,0.008678725,0.000307418,0.006509076,-0.004378326,1.019333,-0.1297478,0.08445306
5,-0.00228815,-0.000448642,0.01133455,-0.004554981,0.007168734,-0.004896423,1.018934,-0.1311699,0.08714827
5,-0.000847972,-0.001657233,0.006830233,-0.002584521,0.005266685,-0.003468171,1.020357,-0.1323793,0.08268363
5,-0.000308834,0.001791171,0.003537896,-0.000995061,0.001845701,0.002287513,1.020879,-0.1289342,0.07943156
5,0.001304455,0.003984421,-0.005015156,-0.001048755,-0.003061318,0.00446742,1.022474,-0.1267465,0.07091946
5,-0.000314033,0.00289211,-0.004939642,0.000354416,-0.004763332,0.00376381,1.020838,-0.1278463,0.07103642
5,-0.00297086,0.001904694,0.000321653,0.002362818,-0.001139937,0.005123028,1.018164,-0.1288429,0.07633935
5,-0.00138039,-0.000332715,-0.005438504,0.006339395,-0.001113516,0.004714329,1.019736,-0.1310908,0.07062072
5,-0.001143101,-0.003484658,-0.003007439,0.007628768,-0.002365029,0.005739527,1.019956,-0.1342545,0.07309296
5,-0.001193353,-0.00206161,0.005049758,0.007830969,-0.002238833,0.00697468,1.019887,-0.1328444,0.08119076
5,0.000324199,0.001191408,0.006714919,0.008864319,-0.005567113,0.006443686,1.021387,-0.1296054,0.08289593
5,-0.000340953,0.001054827,0.006012441,0.003119118,-0.005993914,0.006636407,1.020704,-0.1297571,0.08223304
5,-0.001607983,0.002256791,0.002423922,0.003297174,0.002883959,0.003028906,1.0194,-0.128588,0.07872325
5,-0.001525495,0.0011169,0.000686843,-0.001468074,0.002167184,0.000734692,1.019465,-0.1297452,0.07702548
5,-0.000329323,0.001926225,-0.001094677,-0.006687127,0.000814076,-4.68E-05,1.020643,-0.1289535,0.07528321
5,0.001056946,0.001927389,0.002880068,-0.006652613,0.003478279,0.001206027,1.022011,-0.1289702,0.07929707
5,0.001560189,0.000793076,0.0036008,-0.009487984,0.002297208,0.002821563,1.022496,-0.1301224,0.08005674
5,0.001309833,-0.000518801,0.005428309,-0.007739944,-0.001239472,0.002920915,1.022227,-0.1314521,0.08192308
5,0.001179307,-0.003032851,0.005812207,-0.002964349,-0.001930876,0.002347912,1.022079,-0.1339839,0.08234582
5,0.001444515,-0.000784451,0.000154928,-0.004114603,-0.003493601,0.004424963,1.022326,-0.1317532,0.07672755
5,0.001364028,0.002918118,-0.001584717,-0.005880518,-0.003427148,0.005020543,1.022229,-0.1280682,0.07502708
5,0.001286874,0.002616261,-0.001230253,-0.007354028,-0.004031816,0.004063359,1.022135,-0.1283875,0.07542078
5,0.001486651,0.003295471,-0.000713632,-0.009420683,-0.004919757,0.004815722,1.022319,-0.1277255,0.07597652
5,0.001357939,0.002760814,0.00140496,-0.009072387,-0.003561963,0.004020201,1.022175,-0.1282768,0.07813399
5,0.001756688,-0.00161318,0.001018911,-0.007052179,-0.005091511,0.002871753,1.022559,-0.1326668,0.07778649
5,0.00328877,-0.004816207,-0.003160679,-0.004471123,-0.00507235,0.002172817,1.024077,-0.1358853,0.07364507
5,0.004692308,-0.005020432,-0.005300488,-0.00321568,-0.00396626,0.003855889,1.025468,-0.1361044,0.07154289
5,0.004144442,-0.007228493,-0.001637821,-0.004215716,-0.005860367,0.007583239,1.024908,-0.1383272,0.07524243
5,0.002036754,-0.01207056,0.001273368,-0.007063659,-0.007194052,0.007691536,1.02279,-0.143184,0.07818954
5,0.001104371,-0.00994851,0.000297183,-0.011035,-0.008145715,0.008331706,1.021849,-0.1410773,0.07724826
5,0.001408305,-0.005094379,-0.001283887,-0.01181684,-0.007899126,0.009938884,1.022145,-0.1362393,0.07570106
5,0.00144815,-0.007481005,-0.000698965,-0.006669347,-0.009822296,0.008641358,1.022178,-0.1386434,0.07631878
5,0.000629517,-0.009025606,-0.001022597,-0.001575838,-0.01160135,0.006789534,1.021354,-0.1402069,0.07602683
5,4.87E-05,-0.007437246,-0.005685327,-0.00635203,-0.006851089,0.003184413,1.02077,-0.1386392,0.07139458
5,0.001926151,-0.007300786,-0.008804031,-0.01338408,-0.004564293,-1.51E-05,1.022645,-0.1385253,0.06830497
5,0.003630834,-0.00693906,-0.007375688,-0.01002609,-0.003503662,0.001280171,1.024348,-0.1381882,0.06976069
5,0.002723055,-0.006876336,-0.003117157,-0.006706579,-0.00059123,0.003727613,1.02344,-0.1381525,0.07404458
5,0.001698585,-0.006837965,0.000580603,-0.007091062,-0.00296234,0.004173072,1.022417,-0.1381434,0.07776549
5,0.001425507,-0.006543238,0.00108262,-0.007511473,-0.004699478,0.004320781,1.022147,-0.1378805,0.07828847
5,0.001404494,-0.005301371,-0.000166405,-0.01246118,-0.004398394,0.006411649,1.02213,-0.1366731,0.07705832
5,0.001563442,-0.004315531,-0.002137273,-0.0129217,-0.004268883,0.007422522,1.022294,-0.1357242,0.07510434
5,0.00150358,-0.00637186,-0.000132798,-0.009920431,-0.002852192,0.005450531,1.022241,-0.1378201,0.0771238
5,0.00123395,-0.006476994,0.003523279,-0.008445441,-0.004047565,0.003764213,1.021979,-0.1379673,0.08079301
5,0.000794735,-0.004461588,0.000214409,-0.002335225,-0.003686423,0.003735378,1.021549,-0.1359966,0.07749559
5,0.00070479,-0.00459869,-0.004871497,-0.001853706,-0.002785491,0.003719405,1.021469,-0.1361808,0.07241957
5,0.001554628,-0.00544187,-0.005421335,-0.006497736,-0.004413849,0.000564118,1.02233,-0.1370737,0.07187804
5,0.001632445,-0.005876551,-0.005792752,-0.006853841,-0.003584026,-0.001937951,1.02242,-0.1375604,0.07151321
5,1.03E-05,-0.004810689,-0.006122872,-0.007325394,-0.004700877,0.001668416,1.020811,-0.136549,0.07118779
5,-0.000926226,-0.003121456,-0.003771092,-0.007234362,-0.007423904,0.004159414,1.019889,-0.1349165,0.07354219
5,-0.000482946,-0.003657316,-0.001472337,-0.007198801,-0.008096932,0.002423198,1.020347,-0.1355113,0.07584141
5,0.000975442,-0.00549854,0.000770574,-0.00660726,-0.007741233,0.001142146,1.021821,-0.1374136,0.07808265
5,0.002023881,-0.005383312,-0.000384142,-0.005114411,-0.005995369,-4.16E-06,1.022886,-0.1373614,0.07692424
5,0.001094396,-0.002589554,-0.004035601,-0.00767747,-0.006616926,0.000261851,1.021973,-0.1346326,0.07326719
5,0.001155792,-0.000919239,-0.001830587,-0.009247493,-0.006467674,0.001611298,1.022052,-0.1330291,0.07546478
5,0.001303295,-0.004147708,7.30E-05,-0.007606584,-0.004922442,0.001119031,1.022217,-0.136326,0.07735917
5,-0.000792489,-0.009297542,0.001956936,-0.007462061,-0.005400039,-3.72E-05,1.02014,-0.1415457,0.07923219
5,-0.001940757,-0.01020395,0.006197046,-0.01017452,-0.00131315,-0.00067565,1.01901,-0.1425236,0.08345993
5,-0.001660709,-0.008678736,0.001566064,-0.01198594,0.002326185,-0.000358422,1.019309,-0.1410715,0.07881542
5,-0.001319787,-0.008318762,-0.006803835,-0.006442765,-0.001370128,0.000717559,1.01967,-0.1407864,0.07043108
5,-0.001748371,-0.007594494,-0.009700691,0.000956622,-0.00354455,0.00168338,1.01926,-0.1401391,0.06751884
5,-0.002327061,-0.00742907,-0.005534868,0.002989525,-0.001136579,0.001778982,1.018701,-0.1400525,0.07166811
5,-0.001227696,-0.007127791,-1.37E-05,0.004790041,-0.000465416,0.00179881,1.019819,-0.1398322,0.07717135
5,7.96E-05,-0.003794387,-0.004824139,0.007571447,-0.002803995,0.002924707,1.021144,-0.1365817,0.07234155
5,-5.87E-05,-0.001082256,-0.00812161,0.006227346,-0.003435148,0.002748013,1.021024,-0.1339544,0.06902327
5,-0.001671322,-0.003231793,-0.002469963,0.002715006,-0.00144148,0.001048346,1.019429,-0.1361905,0.07465254
5,-0.003243768,-0.005732072,-0.001394973,0.000912845,0.000123229,-0.001735392,1.017873,-0.1387788,0.07570352
5,-0.004549229,-0.00385449,-0.003310488,-0.000249357,-0.000650193,-0.003480451,1.016584,-0.1369906,0.07376241
5,-0.004876628,-0.001917276,-0.003452273,-0.000285051,-0.002754755,0.000723225,1.016271,-0.135144,0.07359349
5,-0.002174329,-0.001665751,-0.002728573,0.001848039,-0.003452193,0.002451976,1.018988,-0.1349841,0.07428854
5,-0.00054124,-0.002239402,-0.001323743,0.005523881,-0.003008148,-0.001128952,1.020634,-0.1356502,0.07566325
5,6.48E-05,-0.005863319,-0.001736286,0.007813246,-0.000652492,-0.001169535,1.021252,-0.1393672,0.07521919
5,0.000877492,-0.007387873,-0.000390192,0.006369625,0.003586403,-0.003728563,1.022075,-0.1409854,0.07653249
5,-0.001948509,-0.004125449,0.001816575,0.005817487,0.00541547,-0.005391587,1.019258,-0.1378172,0.07870532
5,-0.003433207,-0.001633879,0.000122084,0.005855037,0.002750837,-0.000593215,1.017782,-0.1354204,0.07697594
5,-0.002564852,-0.002395193,-0.002908242,0.004526457,-0.001397387,-0.000754209,1.018658,-0.1362768,0.07390996
5,-0.000462669,-0.007232957,-0.003257928,0.007766364,0.002477364,0.000550786,1.02077,-0.1413055,0.07348688
5,0.000325023,-0.005210163,-0.00035741,0.004682105,0.001642569,-0.004258256,1.021561,-0.1393785,0.0763496
5,3.02E-05,-0.004224067,-0.002169074,0.001884023,-0.000344395,-0.004679636,1.021268,-0.1384885,0.07449944
5,0.001488011,-0.002867715,-0.004546692,0.002287774,-0.004108262,-0.001751804,1.022727,-0.1372284,0.07208269
5,0.001067783,-0.002540448,-0.00695195,0.003331201,-0.008803018,0.002191989,1.022307,-0.1369975,0.06963762
5,0.000655803,-0.004068223,-0.00945394,0.001639001,-0.005900401,0.004272813,1.021894,-0.1386217,0.06709502
5,0.001271638,-0.00529386,-0.006503298,-0.000608626,0.000182286,0.000804415,1.022508,-0.1399437,0.07000403
5,0.000503379,-0.007056658,-0.003444366,-0.002867915,0.001520422,0.001313597,1.021737,-0.1418027,0.07302011
5,-0.000809648,-0.00479767,-0.004418007,-0.004546307,0.0018983,-8.17E-06,1.020421,-0.1396399,0.07200233
5,-0.00170287,-0.00082791,-0.004202707,-0.000197236,0.002317695,-0.005236916,1.019524,-0.1357663,0.07217219
5,0.000587744,-0.00256904,-0.0037373,0.005927077,0.002699399,-0.004779649,1.021811,-0.1376034,0.07259087
5,0.003517895,-0.003186214,-0.00250853,0.008516866,0.002587481,-0.002537173,1.024737,-0.1383164,0.07377165
5,0.001236954,-0.001442033,0.002849428,0.008157291,-0.001534708,-0.000685023,1.022451,-0.1366676,0.07908044
5,-0.001763073,-0.002541924,0.008432946,0.002316594,-0.004089954,-0.00101654,1.019446,-0.1378623,0.08461387
5,-0.001840234,-0.001692254,0.008819071,-0.002845362,-0.002753935,-0.002489256,1.019363,-0.1371069,0.08494946
5,-0.001874311,0.001106131,0.003671521,-0.000919318,-0.002030567,-0.001325727,1.019323,-0.1344021,0.07975146
5,-0.001508604,0.002493446,-0.000720991,0.00086988,-0.001074319,-0.000744442,1.019683,-0.1331073,0.07530902
5,-0.000548861,0.001471735,-0.003051902,-0.000101929,0.00087817,-0.000865807,1.020637,-0.1342205,0.07292888
5,0.000599836,-0.002495341,-0.007605688,0.000726213,0.002318251,-0.0035174,1.021779,-0.1382776,0.06832657
5,0.001423371,-0.002763341,-0.008793663,0.002076439,0.001229603,-0.006894779,1.022596,-0.138634,0.06709058
5,3.41E-05,0.002692291,-0.004294918,0.00214463,-3.46E-05,-0.004463912,1.021199,-0.1332653,0.07154154
5,-0.000816305,0.007103465,-0.002575152,0.00228746,-0.000495109,-0.002012956,1.020342,-0.1289392,0.07321356
5,-9.97E-05,0.00606122,-0.00385039,0.000810793,-0.001605977,-0.003433685,1.021051,-0.1300645,0.07189052
5,-0.000329185,0.002739041,-0.003186821,-0.000581158,-0.001157232,-0.002202086,1.020814,-0.1334673,0.0725062
5,-0.00035898,0.001111179,-0.001474291,-0.000526438,-0.001828608,0.001015206,1.020776,-0.1351731,0.07417073
5,-0.000399198,-0.001988501,0.000188181,-0.003625441,-0.003176032,0.002758173,1.020728,-0.1383479,0.0757851
5,-0.001252808,-0.002164101,0.001514371,-0.004743033,-0.002921581,0.005387743,1.019867,-0.1385958,0.07706321
5,-0.001515561,0.000695336,0.002909963,0.000268375,-0.001559275,0.005619277,1.019596,-0.135806,0.07841091
5,-2.97E-05,-0.000782011,0.004899632,0.004852604,0.001508666,0.002927849,1.021074,-0.1373503,0.0803531
5,0.001721511,0.000666659,0.004531056,0.006698479,0.00088588,0.003253358,1.022817,-0.1359659,0.07993776
5,0.000372707,0.002356106,0.001859412,0.006555869,-0.00049534,0.002139176,1.02146,-0.134338,0.07722035
5,-0.000848367,0.00023022,-0.001489014,0.006051416,0.000677693,-0.001255551,1.02023,-0.1365228,0.07382737
5,0.000935234,0.001155757,-0.006401327,0.005702627,-0.000382631,-0.000824972,1.022005,-0.1356535,0.06887172
5,0.00156841,0.00144887,-0.008410396,0.005434645,0.001626276,-0.000759964,1.02263,-0.1354139,0.06682038
5,0.000998869,0.004934468,-0.004906192,0.006117455,0.005455705,-0.003258175,1.022053,-0.131979,0.07028309
5,0.001179006,0.009334352,-0.002677451,0.005709806,0.004994621,-0.003869261,1.022225,-0.127627,0.07247085
5,0.001221213,0.004993575,-0.001972781,0.004966337,0.003124433,-0.002364409,1.022259,-0.1320125,0.07313492
5,0.00117623,0.002385327,0.001616008,0.002607272,0.001414777,-0.002440704,1.022207,-0.1346621,0.07668345
5,0.001370451,0.004952609,0.001593029,-0.002624873,0.001827928,-0.005910508,1.022394,-0.1321328,0.07662064
5,0.001927091,0.005454588,-0.003089993,-0.00523547,0.003476539,-0.00800214,1.022944,-0.1316653,0.07189831
5,0.001630754,0.003208066,-0.003957078,-0.004553165,0.005729621,-0.006496668,1.022642,-0.1339426,0.07099247
5,-0.000758454,0.001486943,0.000144727,-0.002817004,0.009498893,-0.005158329,1.020247,-0.135691,0.07505602
5,-0.0022128,0.001780717,0.003398585,-0.001918935,0.008688075,-0.005167643,1.018788,-0.1354208,0.07827211
5,-0.000398772,0.000619686,-0.002756584,-0.003243661,0.004298201,-0.005957279,1.020597,-0.1366021,0.07207976
5,0.001182859,-0.000611,-0.009371998,-0.004373515,0.001971519,-0.006337508,1.022175,-0.1378496,0.06542775
5,0.000194552,-0.000563008,-0.002389673,-0.004975969,0.002103811,-0.00767325,1.021183,-0.1378153,0.07237392
5,-0.001305435,-0.001056544,0.004106451,-0.00585563,0.005990025,-0.01031546,1.01968,-0.1383197,0.07883415
5,-0.002086834,-0.001364082,0.002913898,-0.006600863,0.007758522,-0.00982224,1.018896,-0.1386354,0.07760605
5,-0.00239903,-0.000199039,0.002289011,-0.006528462,0.005386494,-0.008246401,1.018581,-0.137476,0.07694617
5,-0.002986205,0.002428227,-0.001270803,-0.004910407,0.006047928,-0.007561443,1.017991,-0.1348521,0.07335209
5,-0.002710062,0.002786903,-0.005122204,-0.002336521,0.005301709,-0.006076579,1.018265,-0.1344946,0.0694672
5,5.65E-05,0.002351004,-0.003108126,-0.000342893,0.002351655,-0.006148554,1.021029,-0.1349296,0.07144846
5,0.002037254,0.002881901,-0.001206844,0.001632102,0.001989965,-0.005204938,1.023006,-0.1343956,0.07331747
5,0.001382378,0.002207474,-0.002402359,0.00505608,0.002311699,-0.001516335,1.022349,-0.1350649,0.07209015
5,0.000539096,0.002699783,-0.001181311,0.005141152,0.00540092,-0.000682699,1.021502,-0.1345654,0.07327981
5,-0.000389656,0.002662829,0.002681149,0.00293466,0.006893434,-0.00404923,1.020571,-0.1345932,0.07711129
5,-0.001921754,0.00217642,0.003276032,0.00430223,0.005863007,-0.007551829,1.019036,-0.1350684,0.0776757
5,-0.001591846,0.002894391,-0.000107005,0.004577888,0.007544432,-0.006234488,1.019362,-0.1343373,0.07426284
5,0.000823464,0.002250112,-0.003414733,0.004434254,0.004040689,-0.000553358,1.021775,-0.1349666,0.07092604
5,0.001656834,0.002845101,-0.002536315,0.005341631,-0.001952316,0.001320981,1.022605,-0.1343548,0.0717761
5,0.001243384,0.004447329,-0.000633977,0.00354265,-0.000729036,-0.002660181,1.022188,-0.132734,0.07365069
5,0.001278589,0.005456567,-0.00091789,0.001421975,0.002820155,-0.003250224,1.022221,-0.1317043,0.07333959
5,0.001180616,0.006038146,0.001245148,-0.002471821,0.003764711,0.002388124,1.02212,-0.1311004,0.07547599
5,0.0153665,0.08399439,0.02462116,-0.06081438,0.2190629,-0.2216896,1.005814,-0.2470505,-0.01955044
5,0.01575567,0.08096416,0.02252456,-0.05716598,0.2195132,-0.2166027,1.006548,-0.2507073,-0.02290218
5,0.01220963,0.07268489,0.02424633,-0.05933244,0.238885,-0.2145082,1.003347,-0.2594846,-0.02234659
5,0.01065522,0.06913787,0.02691382,-0.04499575,0.2322319,-0.2144593,1.002136,-0.263405,-0.02075837
5,0.005635954,0.06948979,0.03014915,-0.02962158,0.2161485,-0.2193577,0.9974581,-0.2633062,-0.01851741
5,0.00943738,0.0675434,0.0363242,-0.01861215,0.2111208,-0.2249153,1.001599,-0.2653898,-0.01325377
5,0.0140551,0.06804835,0.03587699,0.000837802,0.1989688,-0.2226931,1.006555,-0.2649107,-0.01453128
5,0.009423783,0.06974273,0.03742724,0.01055602,0.1996131,-0.2198352,1.002259,-0.2631354,-0.01373201
5,0.00699271,0.07357421,0.04228976,0.002375706,0.1913854,-0.2095774,1.00016,-0.2591204,-0.009542921
5,0.006597347,0.07516407,0.04042346,-0.006082106,0.1792769,-0.1898325,1.000095,-0.2572489,-0.01200685
5,0.005798423,0.07244154,0.03957613,-0.002089803,0.1749032,-0.1788959,0.9996227,-0.2595957,-0.01337777
5,0.006817384,0.06801467,0.04233959,0.01199362,0.1659072,-0.1779608,1.000965,-0.2635568,-0.01106573
5,0.009138997,0.06088361,0.04300139,0.03882466,0.1738675,-0.1771862,1.003606,-0.2701364,-0.01078505
5,0.0118333,0.05954996,0.04276084,0.05947321,0.1834749,-0.1760464,1.006615,-0.270837,-0.0113383
5,0.0119806,0.06797891,0.04367056,0.05293242,0.1836836,-0.1758236,1.007074,-0.2616982,-0.01067476
5,0.01092441,0.07600543,0.04523331,0.04905572,0.1803531,-0.1737529,1.006325,-0.252889,-0.009293574
5,0.01184689,0.07515614,0.04676108,0.05239705,0.1710313,-0.1701652,1.007551,-0.2528865,-0.007884664
5,0.01213251,0.07163804,0.04563092,0.04803859,0.1736455,-0.1681226,1.008136,-0.2554874,-0.009072835
5,0.0126998,0.07240231,0.04050107,0.04744208,0.1720797,-0.1721271,1.008999,-0.2537439,-0.01420178
5,0.01400631,0.07130536,0.03675954,0.04120594,0.1574849,-0.1791066,1.010597,-0.253803,-0.01788556
5,0.01165496,0.06956028,0.04090766,0.02807285,0.1503802,-0.1770577,1.008534,-0.2544551,-0.01362507
5,0.007814824,0.07097326,0.05370228,0.02387692,0.1459101,-0.1693645,1.004979,-0.2518973,-0.000665631
5,0.004510846,0.07052955,0.06358103,0.0304919,0.1337688,-0.156946,1.001956,-0.2511477,0.009428611
5,0.004932943,0.06818441,0.0601087,0.04702858,0.1173017,-0.1404703,1.002656,-0.252254,0.006221097
5,0.01049899,0.06636922,0.05495438,0.06348665,0.117385,-0.1398308,1.008496,-0.2527882,0.001379697
5,0.01239948,0.06720481,0.05464649,0.06638039,0.1206423,-0.1436972,1.010667,-0.2506323,0.001431479
5,0.01157484,0.07011369,0.04550456,0.05927181,0.109901,-0.133366,1.010108,-0.246367,-0.007305594
5,0.01295611,0.06947395,0.03332226,0.05718147,0.119711,-0.1285082,1.011752,-0.2456169,-0.01903975
5,0.0155336,0.0650599,0.03437817,0.05620227,0.1333206,-0.1308614,1.014588,-0.2486104,-0.01749468
5,0.01663841,0.06264034,0.03868647,0.04794892,0.1267492,-0.1278891,1.015949,-0.2495813,-0.01265866
5,0.01182545,0.06784695,0.04000369,0.03890962,0.123931,-0.1241856,1.011389,-0.2429006,-0.01077752
5,0.006262978,0.07415698,0.04497267,0.02761545,0.1166214,-0.121188,1.006077,-0.2350935,-0.005210555
5,0.002984638,0.07087566,0.04673611,0.01983771,0.1082974,-0.1235261,1.003046,-0.236857,-0.002816978
5,0.002359832,0.06694763,0.04334879,0.01020792,0.1057957,-0.1281035,1.002666,-0.2392484,-0.00554377
5,0.007697132,0.06634742,0.04178878,-0.00752876,0.09983329,-0.1262123,1.008244,-0.2382952,-0.006414556
5,0.01203821,0.05853302,0.03968904,-0.006720281,0.1057852,-0.1271894,1.012824,-0.2445413,-0.007798156
5,0.01199491,0.0489386,0.03431938,0.004981642,0.1127732,-0.1292849,1.013015,-0.252555,-0.01242658
5,0.009886586,0.04505126,0.0308284,0.01054432,0.1088058,-0.1266778,1.011139,-0.2548514,-0.0151532
5,0.007948269,0.04299151,0.0322892,0.01515125,0.1117665,-0.127987,1.00943,-0.2553128,-0.01290695
5,0.007513301,0.04122438,0.03243197,0.01264288,0.1236099,-0.132324,1.009221,-0.2554766,-0.01195967
5,0.007071153,0.03935608,0.02882266,0.01543457,0.1343981,-0.1388792,1.009002,-0.2557394,-0.01474736
5,0.00963206,0.03828237,0.02722377,0.02015112,0.1366475,-0.1458307,1.011783,-0.2552077,-0.01550944
5,0.01067247,0.03852327,0.02847292,0.0163109,0.1359767,-0.1424944,1.013041,-0.253364,-0.01341022
5,0.006354531,0.03867062,0.02937668,0.01794362,0.1330234,-0.1362797,1.008938,-0.2516186,-0.01164494
5,0.002991983,0.03866438,0.02868534,0.01302119,0.1217896,-0.135161,1.005788,-0.2500336,-0.01146504
5,0.001841313,0.03903682,0.02796676,0.002203823,0.1166891,-0.1307726,1.004846,-0.2480786,-0.01130427
5,0.002546286,0.04059295,0.0276878,0.000550482,0.1169876,-0.1280194,1.005757,-0.2449502,-0.01069728
5,0.002443019,0.03811923,0.02619248,0.002201068,0.1156988,-0.1282764,1.005857,-0.2458635,-0.01130155
5,0.001461174,0.03093484,0.0255224,0.006968623,0.1200668,-0.1242474,1.005074,-0.2515009,-0.01107687
5,0.002108797,0.02729928,0.02580751,0.007412256,0.118621,-0.1252938,1.005918,-0.2536041,-0.009894689
5,0.002346948,0.0260119,0.02507711,0.005311336,0.1162714,-0.1314673,1.006348,-0.2533756,-0.009726998
5,0.00568576,0.02362155,0.02437936,0.008513624,0.1256388,-0.1365347,1.009875,-0.2542681,-0.009526865
5,0.008879231,0.02066662,0.02283563,0.009238342,0.1270692,-0.1373259,1.013252,-0.2557446,-0.01017408
5,0.003741613,0.02027983,0.02012666,0.01347637,0.116728,-0.1301495,1.008295,-0.2546739,-0.01198907
5,-0.000881387,0.02405424,0.01665064,0.0179274,0.1073869,-0.128129,1.003848,-0.2494643,-0.0145748
5,0.003300517,0.02440908,0.01407422,0.01513967,0.1071226,-0.124618,1.008202,-0.2476978,-0.01626585
5,0.006424989,0.0215861,0.0151781,0.01508664,0.1097625,-0.1143405,1.011495,-0.2491336,-0.01428275
5,0.002280112,0.0191324,0.0175466,0.01570436,0.1013508,-0.1197017,1.007515,-0.2502253,-0.01104237
5,-0.001388566,0.01680758,0.0203904,0.01642418,0.09589103,-0.1243068,1.004007,-0.2512143,-0.007335028
5,-0.003162704,0.01705291,0.02125798,0.02040978,0.09375935,-0.1138077,1.00239,-0.2496602,-0.005613019
5,-0.002297214,0.01579992,0.01818886,0.02280545,0.08803939,-0.1083647,1.003408,-0.249632,-0.007837469
5,0.004936776,0.01329619,0.01792605,0.02521306,0.08988071,-0.1074485,1.01079,-0.2508829,-0.00726597
5,0.00949966,0.01152899,0.01906486,0.02972795,0.08968511,-0.1064515,1.015496,-0.2514263,-0.005303767
5,0.002440464,0.007724874,0.01262057,0.02910554,0.09385273,-0.1039089,1.008712,-0.2528722,-0.01013614
5,0.003116354,0.008147401,0.01083414,0.02740325,0.09551107,-0.1054117,1.00952,-0.2513164,-0.0111351
5,0.003964226,0.006868403,0.01310886,0.0215123,0.09228726,-0.1062399,1.010496,-0.2514933,-0.008086015
5,0.002213704,0.005892822,0.01281517,0.01313118,0.08771608,-0.1069873,1.00887,-0.2513984,-0.007619001
5,0.002231876,0.004261788,0.01016269,0.01839586,0.09036579,-0.1110146,1.009009,-0.2519909,-0.009524877
5,0.001679741,0.003905384,0.00728008,0.02367133,0.09432451,-0.1138757,1.008574,-0.2513408,-0.01167545
5,0.001513976,0.005034533,0.003903177,0.01898357,0.09241593,-0.1127121,1.008522,-0.2492376,-0.01433536
5,0.003612952,0.004526204,0.005819445,0.01904048,0.09255743,-0.1068778,1.010732,-0.2488043,-0.0117177
5,0.002455185,0.004141348,0.00503234,0.0171421,0.09233914,-0.1018587,1.009681,-0.24828,-0.01181955
5,0.002719184,0.005916508,0.002065755,0.01196731,0.09576825,-0.1028389,1.01005,-0.2456279,-0.01411745
5,0.003845932,0.006460277,0.002658308,0.01088167,0.09940157,-0.105042,1.011277,-0.2442394,-0.01287323
5,0.002595703,0.002733833,-0.002536145,0.007257794,0.09153817,-0.1048668,1.010125,-0.2471528,-0.01743347
5,0.004564228,-0.001588925,-0.002726148,0.005630231,0.08547554,-0.1040773,1.012188,-0.2506941,-0.01700719
5,0.004828923,-0.002090506,0.004335206,0.007760782,0.08829528,-0.1030288,1.012545,-0.2504456,-0.009347925
5,0.000687954,-0.001733862,0.004379399,0.008220389,0.08917329,-0.1028527,1.008494,-0.24937,-0.008724447
5,-0.001971698,-0.003350889,0.002405429,0.008357763,0.08484656,-0.1065893,1.005921,-0.250299,-0.01013783
5,-0.001360344,-0.004177039,0.002057695,0.006926053,0.08315882,-0.1097708,1.006617,-0.2504679,-0.009943675
5,-0.000379424,-0.005782477,0.002072711,0.007387611,0.08598333,-0.1061938,1.00768,-0.2514466,-0.00940547
5,-0.001575581,-0.008226035,0.001249622,0.01010658,0.08636756,-0.100203,1.006563,-0.2532936,-0.009724039
5,-0.001414285,-0.006554885,4.34E-05,0.01125024,0.08368298,-0.09611529,1.0068,-0.2510561,-0.01044439
5,-0.000719425,-0.005007358,-0.000974571,0.01447788,0.08016832,-0.09162827,1.007568,-0.2489719,-0.01099499
5,-0.000944452,-0.006566372,-0.003492692,0.01938473,0.07906119,-0.08952299,1.007413,-0.2500237,-0.0130643
5,0.000371408,-0.006390456,-0.001730976,0.0236493,0.07729781,-0.08992033,1.008796,-0.2493694,-0.01087228
5,3.33E-05,-0.006062275,0.000239182,0.02544011,0.06973005,-0.08371224,1.008523,-0.2485915,-0.008490266
5,3.05E-05,-0.009353313,-0.002718764,0.02484331,0.06446826,-0.07839527,1.008581,-0.2514607,-0.01105466
5,0.003682486,-0.01287343,-0.006305353,0.02574791,0.06462212,-0.08193614,1.012292,-0.2545866,-0.01426585
5,0.00492565,-0.01194307,-0.009680838,0.02773169,0.06423462,-0.08275797,1.013591,-0.2532891,-0.01728404
5,-0.000745633,-0.009222034,-0.007414103,0.03018557,0.06097563,-0.08199157,1.007973,-0.2502278,-0.01467814
5,-0.007131197,-0.008890346,-0.003611926,0.03040006,0.06113274,-0.08029924,1.001638,-0.2495821,-0.01055495
5,-0.004846053,-0.009633817,-0.005936817,0.03032515,0.06867285,-0.0738068,1.003972,-0.2500374,-0.01257684
5,-0.000801067,-0.009810735,-0.005831761,0.03352284,0.07204107,-0.07252647,1.008062,-0.2499513,-0.0121866
5,-0.000652251,-0.009135752,-0.002507086,0.03108276,0.06535485,-0.07189292,1.008254,-0.2490379,-0.0085943
5,0.002475698,-0.00859769,-0.001169662,0.02601305,0.05795356,-0.06828372,1.011422,-0.2482853,-0.007006483
5,0.002633171,-0.009658491,-0.000289863,0.02577312,0.05880207,-0.06904636,1.011617,-0.2491548,-0.005893066
5,-0.000767556,-0.012259,-0.004896419,0.02580685,0.06075162,-0.06986217,1.008251,-0.2515865,-0.01028228
5,-0.000581138,-0.01522201,-0.01399948,0.02831909,0.05817764,-0.07050314,1.00847,-0.2544028,-0.01918388
5,-0.001039223,-0.01572113,-0.01543249,0.03228449,0.06067273,-0.07128634,1.008043,-0.2547765,-0.02043117
5,-0.000778458,-0.01490042,-0.01103371,0.03325467,0.06120929,-0.07204075,1.008332,-0.2538515,-0.01586246
5,-0.000387959,-0.01626936,-0.008902885,0.03196607,0.05796551,-0.07405034,1.008748,-0.2551367,-0.01357748
5,-0.00142565,-0.0167168,-0.009159279,0.02887469,0.0600267,-0.07186609,1.007735,-0.2555206,-0.0136953
5,-0.000220721,-0.01375357,-0.01090397,0.02816107,0.05956688,-0.07042418,1.008962,-0.2525134,-0.01531674
5,-6.50E-05,-0.01090577,-0.01208427,0.03015071,0.05818704,-0.07141815,1.009137,-0.2496407,-0.01638887
5,0.000502187,-0.01078495,-0.01190576,0.03149458,0.05649986,-0.06937895,1.009722,-0.2495136,-0.01611704
5,0.001061128,-0.01168648,-0.009169338,0.02988563,0.05437514,-0.06827046,1.010297,-0.2504264,-0.01330193
5,-0.000173403,-0.01082451,-0.005618823,0.02661663,0.05640632,-0.06581074,1.009077,-0.2495928,-0.009687028
5,0.000790051,-0.009162141,-0.006683106,0.02598323,0.05399183,-0.0618507,1.010053,-0.2479749,-0.01070077
5,0.000174193,-0.00810022,-0.007110888,0.02359074,0.05372252,-0.0623958,1.009449,-0.246973,-0.01109133
5,-0.001722316,-0.007893275,-0.00486396,0.0220987,0.05769576,-0.06408411,1.007562,-0.2468406,-0.008819976
5,-0.002451413,-0.008400826,-0.006481407,0.02576533,0.05884654,-0.06568622,1.006842,-0.2474365,-0.01042524
5,-0.002529383,-0.007151679,-0.009849214,0.02484291,0.06334485,-0.06707163,1.006771,-0.2462887,-0.01379259
5,-6.79E-05,-0.006027069,-0.01157437,0.02086425,0.0629348,-0.06469404,1.009238,-0.2452775,-0.01552857
5,0.00087827,-0.006721872,-0.009790819,0.01776463,0.05729933,-0.06259539,1.010188,-0.246097,-0.01376681
5,0.000288201,-0.00612355,-0.005411286,0.01170953,0.05485276,-0.0624448,1.009601,-0.2456338,-0.009419686
5,0.000484094,-0.005349472,-0.00544241,0.006596519,0.05343783,-0.05911375,1.009799,-0.2450045,-0.009493382
5,0.000236861,-0.005424144,-0.007999141,0.004080511,0.05564194,-0.05569765,1.009552,-0.2452327,-0.01210232
5,0.000771612,-0.006045235,-0.008517371,0.00331813,0.05574778,-0.05668432,1.010087,-0.2460155,-0.01268189
5,0.001231769,-0.007013392,-0.008037127,0.002437301,0.05523304,-0.05921147,1.010546,-0.2471527,-0.0122717
5,0.001788305,-0.006658389,-0.005222971,-0.002356589,0.05851763,-0.06085926,1.0111,-0.2469734,-0.009535904
5,0.001247675,-0.005774357,-0.003065301,-0.00459931,0.05579983,-0.05984691,1.010557,-0.2462711,-0.0074644
5,-0.000132715,-0.004035168,-0.003679914,-0.001638439,0.05178085,-0.05776988,1.009173,-0.2447191,-0.008172421
5,0.001636944,-0.002957473,-0.003084981,0.001757795,0.04960959,-0.0570586,1.01094,-0.2438334,-0.007677544
5,0.003229228,-0.003737546,-0.002233957,0.005394002,0.04640822,-0.05448497,1.012528,-0.2448095,-0.00693263
5,0.003230586,-0.00295691,-0.003919923,0.003610453,0.04681158,-0.05209834,1.012525,-0.2442284,-0.008730182
5,0.001047018,0.000244943,-0.005383813,0.002135729,0.04087497,-0.05081937,1.010334,-0.2414333,-0.01043167
5,-0.0009042,0.00157542,-0.002907526,0.003895832,0.04001887,-0.04982679,1.008379,-0.2403087,-0.008080581
5,-0.001201388,6.45E-05,-0.003110812,0.004911468,0.04201069,-0.04879981,1.008078,-0.2420263,-0.008412775
5,0.000642041,0.000176747,-0.004041847,0.008451355,0.04378801,-0.04262063,1.009918,-0.2421209,-0.009475985
5,0.003572219,0.001413316,-0.005624132,0.006906102,0.04300586,-0.03689378,1.012846,-0.2410907,-0.01119331
5,0.005070094,0.000758444,-0.008197008,0.006878448,0.04382491,-0.03759462,1.014341,-0.2419508,-0.01390376
5,0.003694219,0.000655037,-0.01085772,0.01031207,0.04627664,-0.03896261,1.012963,-0.2422579,-0.0167044
5,0.000979545,-0.000637128,-0.01221917,0.01171387,0.04454501,-0.03781007,1.010247,-0.2437517,-0.01820806
5,0.001628087,-0.001782498,-0.01007806,0.01449127,0.04379931,-0.04051241,1.010894,-0.2450963,-0.01621144
5,0.003267159,0.000788394,-0.007783329,0.01364417,0.04488225,-0.04329538,1.012533,-0.2427218,-0.01406347
5,0.00240083,0.001516604,-0.003909124,0.01076817,0.04180711,-0.03728124,1.011668,-0.2421869,-0.0103382
5,0.001999504,-2.40E-06,0.001295777,0.01176173,0.03698467,-0.03082192,1.011269,-0.2438958,-0.0052841
5,0.000598617,0.001230391,-0.001405765,0.01016536,0.0319553,-0.0298742,1.00987,-0.2428491,-0.008137885
5,-0.002866679,0.001563027,-0.00507006,0.01004381,0.02852447,-0.02832956,1.006409,-0.2426985,-0.0119554
5,-0.004314178,0.000846214,-0.002818506,0.0141525,0.03014953,-0.02553714,1.004966,-0.2435931,-0.00985769
5,-0.002856345,0.002277618,-0.004124248,0.01614619,0.03237573,-0.02363131,1.006429,-0.2423349,-0.01131762
5,-0.001741872,0.004010499,-0.005997274,0.01782838,0.03248831,-0.02272904,1.007549,-0.2407705,-0.01334493
5,-0.002464655,0.007299394,-0.00389327,0.01777529,0.03179221,-0.02173701,1.006832,-0.237645,-0.01139513
5,-0.002040624,0.008573848,-0.003914799,0.01453144,0.02944037,-0.02022118,1.007261,-0.2365285,-0.0115706
5,0.000395966,0.00546354,-0.00339857,0.009560243,0.02796362,-0.02061765,1.009703,-0.2397909,-0.01120786
5,0.001779426,0.005780745,0.00025262,0.003857344,0.02816519,-0.02182388,1.011092,-0.2396196,-0.007709485
5,0.001311886,0.006845074,0.00185251,0.002828729,0.02720391,-0.02048663,1.01063,-0.2386947,-0.006261441
5,0.001624067,0.005312021,-0.001503179,0.00340695,0.02416802,-0.01878603,1.010948,-0.2403605,-0.009767652
5,0.003187978,0.00598983,-0.004382649,0.002112072,0.01841888,-0.01784652,1.012517,-0.2398085,-0.01279603
5,0.003477683,0.005130339,-0.00301737,0.001103057,0.01536451,-0.01537943,1.012812,-0.2407869,-0.01157786
5,0.004073494,0.003118594,-0.003700837,-0.001990613,0.01991005,-0.01338884,1.013414,-0.2429104,-0.01240656
5,0.005899597,0.003943872,-0.004383892,-0.004230295,0.02417412,-0.01241958,1.015246,-0.2421897,-0.01323288
5,0.006151487,0.00317546,-0.002795431,-0.002961539,0.02226019,-0.01159639,1.015505,-0.2430557,-0.01178568
5,0.004776651,0.002637161,-0.002800212,-0.001219567,0.01768919,-0.01209888,1.014138,-0.2436846,-0.01192964
5,0.000547022,0.003965331,0.001122363,-0.000621769,0.01318423,-0.01175818,1.009917,-0.24244,-0.008144076
5,-0.003930885,0.003028062,0.005050492,-0.002715179,0.01363356,-0.0103161,1.005449,-0.2434542,-0.00435058
5,-0.002107694,0.002588141,0.001414839,-0.005093546,0.02043899,-0.008373411,1.007283,-0.2439642,-0.008118185
5,0.000370141,0.002837046,-0.001636782,-0.004788924,0.0219614,-0.006625848,1.009773,-0.2437789,-0.01129879
5,-0.001568856,0.001099666,-0.00016976,-0.005554767,0.01465608,-0.007571712,1.007846,-0.2455735,-0.009957613
5,-0.001135661,-0.001858837,-0.00088821,-0.008866269,0.009321795,-0.00697082,1.008292,-0.2485831,-0.01079869
5,0.001551964,-0.004502587,-0.00456936,-0.007420866,0.01298676,-0.005976633,1.010992,-0.2512721,-0.01459921
5,0.002629078,-0.003258816,-0.006879272,-0.000172925,0.02000756,-0.01141841,1.012082,-0.2500682,-0.01702529
5,0.003019244,-0.002323704,-0.009801081,0.002789051,0.01908699,-0.01649405,1.012486,-0.2491681,-0.02006027
5,0.00033891,-0.003908774,-0.01087952,-0.002583427,0.01383152,-0.01565906,1.00982,-0.2507836,-0.02124921
5,-0.002397912,-0.002814462,-0.01045415,-0.007170756,0.0112808,-0.01525026,1.007097,-0.2497156,-0.02093209
5,-0.00119747,-0.00301911,-0.01513151,-0.002593865,0.01347246,-0.01738477,1.008312,-0.2499429,-0.02571587
5,-0.001705882,-0.004281874,-0.01479117,0.002901459,0.02159618,-0.017921,1.007819,-0.251225,-0.02548063
5,-0.003075342,-0.003327031,-0.009103842,0.004942737,0.02426166,-0.01626865,1.006464,-0.2502865,-0.01989761
5,-0.00127964,-0.002927352,-0.008345792,0.008195642,0.02209958,-0.01489915,1.008274,-0.2499006,-0.01924344
5,0.001023293,-0.001675564,-0.008731145,0.004337457,0.02335986,-0.01336299,1.010591,-0.2486602,-0.01973249
5,0.001831704,-0.00050223,-0.01210928,-0.002430481,0.02274724,-0.01273849,1.011414,-0.2474963,-0.02321434
5,0.00047789,-0.000460822,-0.01385531,-0.00253182,0.01878048,-0.01484699,1.010074,-0.2474624,-0.02506436
5,-0.001651282,-0.002054187,-0.006215786,-0.004871385,0.0129534,-0.01532225,1.007958,-0.2490616,-0.01752939
5,-0.003288039,-0.005733364,-8.74E-05,-0.003773812,0.01133903,-0.0138872,1.006335,-0.2527451,-0.01150624
5,-0.00454233,-0.006673784,-0.00173683,0.003627417,0.01171809,-0.01649192,1.005093,-0.2536886,-0.01326156
5,-0.003917626,-0.007237046,-0.004496328,0.003653041,0.007202916,-0.0183799,1.00573,-0.2542541,-0.01612729
5,-0.001787641,-0.009374326,-0.005381913,0.002467943,0.00538516,-0.01403981,1.007872,-0.2563933,-0.0171193
5,-5.97E-05,-0.009576725,-0.009990505,0.005889211,0.005060319,-0.01168902,1.00961,-0.2565976,-0.02183448
5,0.00026603,-0.009841695,-0.01234484,0.009224901,0.006680035,-0.01049245,1.009945,-0.256865,-0.02429567
5,-0.001145023,-0.01019937,-0.008620984,0.01452415,0.01200839,-0.007523521,1.008543,-0.257226,-0.02067914
5,-0.002690723,-0.009566407,-0.01066397,0.01778787,0.01266796,-0.009505933,1.007005,-0.2565978,-0.02283015
5,-0.002567716,-0.008463591,-0.01254457,0.01851807,0.01444463,-0.01077158,1.007135,-0.2555016,-0.02481964
5,-0.000971315,-0.005655981,-0.01195824,0.02020861,0.01720668,-0.01063217,1.008737,-0.2527026,-0.0243433
5,0.000241186,-0.003158518,-0.01365923,0.01899836,0.01348282,-0.01308373,1.009954,-0.2502161,-0.02615563
5,-0.00155593,-0.003121595,-0.01165728,0.01810784,0.01118459,-0.0141135,1.008161,-0.2501924,-0.02426661
5,-0.00380987,-0.002340992,-0.01180585,0.0180063,0.01243447,-0.01463353,1.00591,-0.2494273,-0.02452993
5,-0.00252836,-0.000704975,-0.01133393,0.01692982,0.01321372,-0.01269865,1.007193,-0.247809,-0.02417474
5,-0.001235221,-0.002141842,-0.008648488,0.02150799,0.01411459,-0.01375677,1.008487,-0.2492657,-0.02160812
5,0.000591226,-0.005216422,-0.01097422,0.02200775,0.01923004,-0.01542923,1.010311,-0.2523859,-0.02417802
5,0.000158238,-0.002628057,-0.01093382,0.01873518,0.02448806,-0.01567681,1.009875,-0.2498233,-0.02426306
5,0.000568446,0.001714661,-0.01514272,0.01684147,0.02304002,-0.01785656,1.010281,-0.2455082,-0.02859974
5,0.002046545,0.000379464,-0.01529079,0.01154336,0.02173598,-0.01926261,1.011755,-0.2468728,-0.02887809
5,0.000781351,-0.001554977,-0.01093082,0.00875924,0.02423772,-0.02078861,1.010484,-0.2488382,-0.0246511
5,-0.001494807,-0.000705198,-0.005764265,0.01132985,0.02063567,-0.01776478,1.008202,-0.2480207,-0.01962029
5,-0.002758519,-0.003411656,-0.005416526,0.01237739,0.0168197,-0.01936219,1.006932,-0.2507607,-0.01941095
5,-0.000540414,-0.00363099,-0.00393908,0.01372207,0.02027829,-0.02612895,1.009143,-0.2510147,-0.01807431
5,0.002900152,-0.003256184,0.00258136,0.01857352,0.02149125,-0.02788981,1.012576,-0.2506757,-0.01169671
5,0.00099125,-0.006261663,0.002345516,0.02108395,0.01906948,-0.02426571,1.01066,-0.2537182,-0.01207694
5,-0.002077196,-0.002895992,-0.001672323,0.02172681,0.0177381,-0.01999978,1.007583,-0.2503907,-0.01624015
5,-0.002609739,0.002479847,-0.002957114,0.02225119,0.01892221,-0.02107289,1.007041,-0.2450542,-0.01767081
5,-0.002344891,0.003640728,-0.005681895,0.02180382,0.02336069,-0.02237834,1.007297,-0.2439337,-0.02054163
5,-0.000653611,0.003379107,-0.007641942,0.0224287,0.02335591,-0.01900923,1.008979,-0.2442365,-0.02264771
5,-0.001218089,0.001941285,-0.005143698,0.02228504,0.01977906,-0.01584203,1.008405,-0.2457158,-0.02029541
5,-0.003053022,0.002464064,-0.000407883,0.02116492,0.01900693,-0.01245056,1.006559,-0.2452346,-0.01570532
5,-0.003058153,0.002873856,0.001323128,0.01960195,0.01197803,-0.01001724,1.006543,-0.2448663,-0.0141196
5,-0.003322745,0.001485604,0.001115612,0.0170668,0.003095712,-0.007805814,1.006267,-0.2462956,-0.01447161
5,-1.81E-05,0.001962,0.003531202,0.01826479,0.004176122,-0.003109829,1.009559,-0.2458597,-0.01219931
5,0.004953022,0.002375146,0.003302673,0.02365119,0.00516574,-0.003161522,1.014518,-0.2454863,-0.0125695
5,0.005911497,0.003544366,-0.001507381,0.02613969,0.002606018,-0.00288265,1.015463,-0.2443559,-0.01751919
5,0.004326799,0.006879599,-0.003798147,0.02331646,0.000683034,0.001720489,1.013865,-0.2410584,-0.01994729
5,0.001938345,0.008077715,-0.00227498,0.02307828,-0.002919763,0.00075884,1.011463,-0.2398966,-0.01855906
5,0.002818696,0.006744802,-0.001101505,0.02538639,-0.003777546,0.000555465,1.01233,-0.2412641,-0.01751804
5,0.003832192,0.007074863,-0.001631242,0.02450273,-0.002852474,0.002402456,1.013331,-0.2409665,-0.01817769
5,0.001894212,0.007276589,-0.001708694,0.02633494,-0.004356943,0.00091611,1.011382,-0.2407947,-0.01838241
5,0.001516494,0.00536825,-0.001407926,0.0292963,-0.003425068,0.001189858,1.010993,-0.2427304,-0.01820619
5,-6.19E-05,0.006615028,-0.00061455,0.03072454,-0.000255333,-0.000864041,1.009404,-0.2415081,-0.01753458
5,-0.000278592,0.007212738,0.000723464,0.03305097,0.000993718,-0.00399577,1.009178,-0.2409318,-0.01631545
5,0.001903326,0.005513108,-0.00087077,0.03165969,-0.000307448,-0.00295636,1.011352,-0.2426495,-0.01802559
5,0.000568975,0.007103405,-0.001818976,0.03150728,-0.001664912,-0.002652441,1.01001,-0.241074,-0.01908665
5,2.39E-05,0.006586052,9.73E-05,0.03335466,-0.000892223,-0.005430928,1.009458,-0.2416025,-0.01728016
5,0.000454505,0.005946188,0.000112061,0.03180048,-0.000216879,-0.00913904,1.009883,-0.24225,-0.01737197
5,7.63E-05,0.007805081,0.002594711,0.03058942,-0.000680761,-0.008312903,1.009499,-0.2403949,-0.01499272
5,0.000582758,0.008689181,0.006868996,0.02890826,-0.00277822,-0.005896718,1.010001,-0.2395109,-0.01081848
5,0.000103104,0.01162555,0.005397852,0.02608894,-0.00479496,-0.002997895,1.009518,-0.2365705,-0.01238607
5,0.00032949,0.01111703,0.004476775,0.02210412,-0.006521473,0.009177944,1.009741,-0.2370709,-0.01339969
5,0.000487371,0.008295803,0.006206337,0.02017445,-0.01316993,0.01828532,1.009897,-0.2398795,-0.01175853
5,0.000214174,0.007645761,0.005333873,0.02299713,-0.0180936,0.01349998,1.009622,-0.2405124,-0.01271505
5,0.001462041,0.003700259,0.004513094,0.02393203,-0.01680195,0.01223172,1.010869,-0.2444361,-0.01361533
5,0.001852045,0.001862855,0.001624804,0.02716087,-0.01346155,0.01597641,1.011259,-0.2462472,-0.01657844
5,0.001952278,0.002627076,-0.002485362,0.0321914,-0.00585184,0.01105599,1.011359,-0.2454525,-0.02075875
5,0.002552202,0.001994809,0.000788562,0.03031861,-0.000377974,0.004276825,1.01196,-0.2460502,-0.01755042
5,0.003256998,0.004377002,0.006083633,0.02823666,0.000680041,0.000922055,1.012667,-0.2436298,-0.01231652
5,0.002868589,0.009163268,0.006290817,0.02745869,0.001751971,0.001414291,1.012281,-0.2388017,-0.01216608
5,9.26E-06,0.01315523,0.005888691,0.02392183,-3.09E-05,0.006180333,1.009425,-0.2347644,-0.01262042
5,-0.001560199,0.01106464,0.006115896,0.02310958,-0.001995572,0.005155656,1.00786,-0.2368059,-0.01244077
5,0.000136963,0.005792636,0.005979983,0.02544914,-0.003400484,0.004240843,1.009563,-0.242025,-0.01261946
5,0.003577681,0.005041505,0.00663474,0.02696715,-0.002340386,0.005979538,1.01301,-0.2427193,-0.01200262
5,0.005171584,0.004076826,0.007888449,0.02868546,0.000145881,0.003098195,1.01461,-0.2436234,-0.0107819
5,0.002501317,0.002820791,0.009293779,0.02772884,-0.001551271,0.003945996,1.011948,-0.2448154,-0.0094045
5,-0.001900837,0.00323774,0.008100376,0.02293182,-0.0010721,0.004875609,1.007555,-0.244331,-0.01062065
5,-0.004458845,0.00249478,0.005001051,0.01966184,-0.000628536,0.006924696,1.005006,-0.2450036,-0.01373742
5,-0.000769017,0.001259464,0.004682587,0.01762741,-0.003216531,0.01248866,1.008706,-0.2461657,-0.01406803
5,0.003675924,-0.00174646,0.005844721,0.02043284,-0.00478572,0.008639513,1.013162,-0.249096,-0.01291282
5,0.001300008,-0.00344535,0.006525071,0.02683346,-0.007426388,0.005651029,1.010798,-0.2507172,-0.01223424
5,-0.000372708,-0.00262783,0.006087227,0.02576332,-0.007519595,0.008654067,1.009137,-0.2498205,-0.01266878
5,-9.26E-05,-0.002426699,0.003579786,0.02340495,-0.008216602,0.008443934,1.009429,-0.249539,-0.0151679
5,-0.001724411,-0.000162487,0.000612685,0.02411401,-0.01413217,0.009642004,1.00781,-0.2471938,-0.01812182
5,-0.000428489,0.002217771,-0.000819274,0.02125995,-0.0169727,0.01207475,1.009119,-0.2447322,-0.01953602
5,0.000986964,0.002506575,0.000779252,0.01869715,-0.01252134,0.01130237,1.010547,-0.2443619,-0.0179155
5,-0.000266405,0.001244121,0.001757776,0.01897216,-0.005660037,0.006832263,1.009307,-0.2455428,-0.01691111
5,0.000319046,-0.001131133,0.00178611,0.01862004,-0.005826184,0.003307808,1.009906,-0.2478367,-0.01685334
5,0.002395565,0.001587452,0.004763721,0.01768111,-0.00387567,0.003370258,1.01201,-0.2449566,-0.01380698
5,0.003442218,0.002451009,0.000222592,0.01736119,-0.003137383,0.001722695,1.01307,-0.2440133,-0.01830908
5,0.001979909,0.001457091,-0.001074587,0.017739,-0.00645401,0.001359982,1.011622,-0.2449282,-0.01956439
5,-0.001247456,-0.001415968,0.002534013,0.01900674,-0.00595796,0.004126309,1.008409,-0.2477232,-0.01591136
5,-0.005334637,-0.00479389,0.01069401,0.02129142,-0.005675711,0.008255227,1.004336,-0.251024,-0.007704593
5,-0.006345916,-0.005632287,0.01411927,0.02461655,-0.005225897,0.007650558,1.00334,-0.2517866,-0.00423016
5,-0.003047274,-0.002076571,0.007063138,0.02303997,-0.002697848,0.008709594,1.006653,-0.2481568,-0.0112345
